time,AccelX,AccelY,AccelZ,GyroX,GyroY,GyroZ,Total_A
0,0,0,0,0,0,0,0
1780906880.200179,0.2959,-0.916,-0.2405,-2.2443,5.1603,2.626,0.9922
1780906880.3990684,0.2769,-0.9363,-0.3157,-14.6489,0.2137,2.6489,1.0261
1780906880.5992732,0.2925,-0.9148,-0.2517,0.0916,-5.8092,0.6718,0.9929
1780906880.7993085,0.2747,-0.9319,-0.2795,-1.2595,-0.084,0.4122,1.0109
1780906880.9992259,0.2778,-0.9285,-0.2793,-1.7252,-0.6565,-0.8244,1.0086
1780906881.1994543,0.2783,-0.9246,-0.272,-1.2061,-0.7252,1.1603,1.0031
1780906881.4019518,0.2744,-0.9231,-0.2463,1.5038,-2.6794,-0.2214,0.994
1780906881.6037192,0.2793,-0.925,-0.2727,-1.8779,-1.2061,-0.0687,1.004
1780906881.7994547,0.2791,-0.9238,-0.2808,-2.9847,0.0763,-0.6489,1.0051
1780906881.999306,0.2827,-0.917,-0.2561,1.5191,-1.4885,0.7099,0.9932
1780906882.1994398,0.2791,-0.9314,-0.2817,-1.8702,-1.1985,-0.4733,1.0123
1780906882.39912,0.2954,-0.9192,-0.2568,-3.1069,-1.626,0.0153,0.9991
1780906882.6035612,0.2781,-0.9229,-0.2615,-0.5496,-1.229,-1.2214,0.9987
1780906882.7988367,0.2832,-0.9265,-0.2688,-2.8702,-1.145,0.771,1.0054
1780906882.9993792,0.2883,-0.9221,-0.2737,-1.9542,-1.4962,-0.5038,1.0042
1780906883.1988034,0.2727,-0.9336,-0.271,3.145,-1.3282,5.9313,1.0097
1780906883.398745,0.2187,-0.9509,-0.2832,-0.0611,-2.626,9.7099,1.016
1780906883.598642,0.2876,-0.9175,-0.2419,0.6565,-4.6183,-5.9313,0.9915
1780906883.79975,0.2581,-0.9319,-0.2458,0.2977,-1.3893,2.1374,0.9977
1780906883.9997747,0.2588,-0.9382,-0.2319,-3.1832,-3.7634,-2.4733,1.0005
1780906884.1993747,0.2385,-0.9417,-0.2307,1.0382,2.5573,5.0534,0.9984
1780906884.3995717,0.2581,-0.9321,-0.2449,-0.7786,-0.8015,-3.4656,0.9977
1780906884.599332,0.2556,-0.9426,-0.2646,-3.8702,-2.8702,-0.8855,1.0119
0,0,0,0,0,0,0,0
0,0,0,0,0,0,0,0
1780906901.9001613,-0.0649,-1.0454,-0.1997,-8.8321,-8.1527,24.7252,1.0663
1780906902.0994544,0.0195,-0.9658,-0.126,-8.084,27.9389,2.0611,0.9742
1780906902.300269,-0.1353,-0.9429,-0.0779,3.1603,34.6183,11.687,0.9557
1780906902.49936,-0.1309,-0.9802,-0.1558,-20.1069,6.2901,-8.4885,1.0011
1780906902.7000883,-0.1765,-0.9006,-0.1074,-24.0763,-7.374,-12.9237,0.924
1780906902.9021983,-0.1348,-1.0544,-0.0808,-7.9389,-8.0687,-8.2901,1.0661
1780906903.0995276,-0.011,-1.0154,-0.3733,-11.5038,-10.4962,-17.145,1.0819
1780906903.2998626,0.1797,-1.0547,-0.4014,-18.2748,6.6489,-10.2443,1.1427
1780906903.5001864,0.0176,-1.1687,-0.2234,-17.5802,-11.8855,-21.2748,1.19
1780906903.6996977,-0.0645,-1.063,-0.1743,-12.855,-36.5802,8.2214,1.0791
1780906903.899761,0.0117,-0.5542,-0.3474,8.9237,-20.4656,-12.8321,0.6542
1780906904.099463,0.1025,-0.812,-0.2556,-12.8855,-21.0763,-30.916,0.8574
1780906904.2999878,-0.0234,-1.0256,-0.124,5.687,19.8168,-5.1603,1.0334
1780906904.4997456,-0.0168,-1.0181,-0.5432,-3.6412,41.6107,-4.3664,1.154
1780906904.6997294,-0.0813,-1.0308,-0.333,-8.0229,37.3206,26.5954,1.0863
1780906904.8998506,-0.1069,-1.1399,-0.156,5.7252,-15.8626,6.9389,1.1555
1780906905.14954,-0.1826,-1.2231,-0.271,-27.1908,-51.0153,-25.3893,1.266
1780906905.2998793,-0.1929,-0.908,-0.1587,-1.4198,-34.9084,18.4122,0.9417
1780906905.5545666,0.0046,-0.9885,-0.1052,7.7328,-34.8473,-4.7099,0.9941
1780906905.706438,-0.0012,-1.0427,-0.1943,13.7176,14.1985,-9.0382,1.0607
1780906905.8999138,0.1335,-0.5623,-0.3079,32.2824,32.687,9.2901,0.6548
1780906906.0999906,0.0281,-0.7629,-0.2031,9.9542,41.7328,12.5649,0.79
1780906906.300357,-0.1775,-0.9934,-0.0896,16.0153,-1.771,20.9466,1.0131
1780906906.5080957,-0.1953,-1.3103,-0.3267,-36.5344,-32.4656,-5.542,1.3645
1780906906.69971,-0.0691,-0.9128,-0.2402,18.5344,-4.9389,57.8779,0.9464
1780906906.8993444,0.0896,-0.7666,-0.2642,-2.3435,10.0076,-7.5496,0.8158
0,0,0,0,0,0,0,0
0,0,0,0,0,0,0,0
1780906909.0267036,0.0474,-0.9722,-0.2839,-4.229,-3.3282,-2.8855,1.0139
1780906909.2275367,0.0046,-0.9609,-0.252,-1.1145,-13.855,2.3664,0.9934
1780906909.4262052,-0.012,-0.9675,-0.2874,-1.2137,-32.7176,-4.2214,1.0094
1780906909.6780539,0.104,-0.9333,-0.3494,-10.4656,-29.2901,-6.9847,1.002
1780906909.8261423,0.1331,-0.9539,-0.3174,-10.687,-17.6718,-6.8321,1.014
1780906910.026452,0.0764,-0.9597,-0.2852,-2.7328,1.2061,15.7405,1.0041
1780906910.2268095,0.2173,-1.0093,-0.3196,15.8626,37.9008,32.1679,1.0807
1780906910.4267085,0.0894,-0.8599,-0.3457,27.7023,97.542,26.4198,0.9311
1780906910.6266496,-0.0515,-0.8396,-0.4341,11.7863,120.2824,19.6641,0.9466
1780906910.827376,-0.2119,-0.8196,-0.3982,15.3053,127.542,28.9466,0.9355
1780906911.0264306,-0.1946,-1.0017,-0.4236,12.3435,126.1298,9.3969,1.1049
1780906911.2261384,-0.1243,-0.9099,-0.3325,10.4046,103.2214,-0.4427,0.9767
1780906911.4442444,0.2512,-0.9033,-0.4368,-11.2748,94.6412,20.0611,1.0343
1780906911.6267126,0.0549,-0.948,-0.3154,7.4656,63.7557,28.626,1.0006
1780906911.8288298,0.1465,-0.927,-0.2183,-3.9695,48.9389,26.1908,0.9635
1780906912.0266557,-0.0784,-1.0776,-0.3643,4.1145,62.5267,64.1985,1.1402
1780906912.2262352,-0.3674,-1.0159,-0.3721,-5.2977,42.4809,36.6489,1.1426
1780906912.4282246,-0.4004,-0.8804,-0.2173,-7.4351,-15.3588,-9.2366,0.9913
1780906912.6296144,-0.4609,-0.9124,-0.2278,5.1069,-89.542,-35.0,1.0473
1780906912.876992,-0.104,-0.9143,-0.3748,-19.7786,-102.2443,-46.8244,0.9936
1780906913.027418,0.0295,-0.9619,-0.3674,-17.1069,-99.7099,-30.1985,1.0301
1780906913.2269228,0.0605,-0.9236,-0.3987,-20.5191,-87.9618,-25.3511,1.0078
1780906913.4272065,0.1221,-0.9512,-0.3447,-13.3282,-85.458,-24.4275,1.0191
1780906913.631532,0.1658,-0.9507,-0.3625,3.3893,-65.8855,-10.4122,1.0309
1780906913.8257227,-0.0752,-0.8945,-0.2498,21.1145,18.8931,42.0458,0.9318
1780906914.0263734,-0.2344,-1.0471,-0.3621,-13.0611,77.2061,24.5725,1.1325
1780906914.226343,-0.3433,-1.0938,-0.3479,-3.626,100.4122,25.084,1.198
1780906914.4271517,-0.2161,-0.9204,-0.3879,17.4504,118.6718,31.0076,1.0219
1780906914.6280532,-0.0081,-0.7344,-0.4468,-21.855,104.6641,-15.6718,0.8596
1780906914.826414,0.01,-0.9668,-0.582,-22.542,85.4504,19.2519,1.1285
1780906915.027129,0.0732,-0.9363,-0.405,22.2366,25.8779,13.3435,1.0228
0,0,0,0,0,0,0,0
0,0,0,0,0,0,0,0
1780906916.9459648,-0.1284,-0.946,-0.2637,-3.1603,-10.3588,6.2519,0.9905
1780906917.1452787,-0.135,-0.9536,-0.3472,-12.1756,-20.7328,-3.7863,1.0238
1780906917.3452644,-0.1028,-0.999,-0.2441,-9.9008,-3.3969,-8.3511,1.0335
1780906917.5490487,-0.0156,-0.8623,-0.4365,-3.5725,22.542,3.7176,0.9666
1780906917.7501194,0.0986,-0.9055,-0.4546,-12.7405,46.8015,9.374,1.018
1780906917.9457898,0.1714,-0.9353,-0.3679,1.3435,64.916,27.8397,1.0196
1780906918.145223,0.0789,-0.9644,-0.3562,13.0305,53.1527,25.4504,1.0311
1780906918.3462005,-0.1128,-0.8672,-0.4507,9.8397,30.0687,25.7405,0.9838
1780906918.5456047,-0.1721,-0.9585,-0.5496,13.9008,40.3435,38.3588,1.1182
1780906918.7452328,-0.1064,-0.8083,-0.4624,15.2443,79.7252,42.1221,0.9373
1780906918.9453962,-0.0945,-0.95,-0.5757,4.4122,102.9313,17.9084,1.1148
1780906919.1454995,0.0691,-0.9478,-0.4919,-34.8015,94.3664,-35.8397,1.0701
1780906919.3462124,0.262,-0.9797,-0.5937,-15.9618,64.8855,8.1603,1.1752
1780906919.5511928,0.2122,-1.009,-0.3684,-12.3664,31.5878,10.084,1.0949
1780906919.7464712,0.2561,-0.9148,-0.4192,5.2672,34.4351,30.9389,1.0383
1780906919.9453223,-0.1431,-0.9014,-0.3157,30.6794,36.2748,41.7099,0.9657
1780906920.146202,-0.157,-0.9546,-0.3101,7.7099,31.9466,19.5344,1.0159
1780906920.3447337,-0.1772,-0.9988,-0.1877,-15.5878,11.229,-7.6947,1.0316
1780906920.5457377,-0.2915,-0.9829,-0.177,9.7252,23.0763,6.6183,1.0404
1780906920.746273,-0.2039,-1.0198,0.0315,6.4122,2.1756,-26.3893,1.0404
1780906920.94594,-0.0476,-0.6165,-0.3005,16.7176,-5.4962,-6.3893,0.6875
1780906921.1464596,0.0227,-0.9634,-0.105,2.4962,-24.8321,-3.6641,0.9693
1780906921.3470154,-0.0076,-0.9604,-0.1736,1.3511,-23.9924,12.2214,0.976
1780906921.5463436,-0.0684,-1.2671,-0.2932,-29.8397,-0.6107,38.1374,1.3024
1780906921.7540362,-0.2744,-0.8264,-0.1997,-13.9924,6.9924,25.9924,0.8934
1780906921.94855,-0.1326,-0.78,-0.1509,0.0076,2.7557,17.6641,0.8055
1780906922.147293,-0.1245,-0.9917,-0.125,7.313,13.4504,-18.9847,1.0073
1780906922.3463786,-0.1323,-0.9797,-0.2498,-8.7481,19.1374,-14.4351,1.0197
1780906922.5462215,0.0813,-0.9263,-0.304,-21.5878,6.8855,-19.3969,0.9783
1780906922.7466018,-0.019,-1.0618,-0.2935,-16.5573,-11.6412,-12.6489,1.1017
1780906922.9462433,-0.1416,-0.8955,-0.2974,16.8779,-17.9847,6.1832,0.9542
0,0,0,0,0,0,0,0
0,0,0,0,0,0,0,0
1780906924.0000465,0.0505,-0.9924,-0.2854,4.6794,39.0305,13.916,1.0339
1780906924.2011907,0.0708,-0.9731,-0.3176,-13.3893,61.9771,-3.7176,1.0261
1780906924.4020538,0.127,-0.9387,-0.3809,1.3053,76.5496,11.1679,1.021
1780906924.602444,0.1318,-0.9294,-0.3198,11.6565,73.0916,26.0687,0.9917
1780906924.8010855,0.0937,-0.9585,-0.2622,3.5496,84.0687,33.5191,0.9981
1780906925.0006902,-0.168,-0.8579,-0.0427,20.7176,36.229,-9.1603,0.8752
1780906925.2018847,-0.3701,-0.8352,-0.0552,-0.2595,31.3969,27.9237,0.9152
1780906925.4012115,-0.1699,-1.0076,-0.158,-3.4962,25.7252,-3.4962,1.0339
1780906925.6002977,-0.3079,-0.988,-0.1753,9.9237,15.7023,-16.0992,1.0496
1780906925.8040848,0.1152,-0.6462,-0.2195,16.8931,-7.4427,-15.1985,0.6922
1780906926.0007558,-0.0413,-0.8408,-0.1997,-1.458,-1.9008,-11.6336,0.8652
1780906926.2009957,0.1663,-0.9189,-0.2366,-1.6489,-12.6565,-1.0382,0.9634
1780906926.4007366,0.2146,-0.9199,-0.2283,-0.7634,12.9847,12.8168,0.9718
1780906926.6051848,0.1577,-1.0955,-0.1875,0.2824,19.374,17.4809,1.1225
1780906926.8002443,0.0059,-0.7571,-0.2893,10.0153,57.8702,27.1756,0.8105
1780906927.0002332,0.0417,-0.7515,-0.198,-14.4351,65.1145,19.229,0.7782
1780906927.2000594,-0.1064,-0.9695,-0.2297,-1.0305,51.2061,-0.0916,1.002
1780906927.4001207,-0.1741,-1.2759,-0.5703,-34.374,31.5878,-19.5344,1.4083
1780906927.6007266,0.0901,-0.9404,-0.4255,-38.7252,26.2519,-30.8931,1.0361
1780906927.8003888,0.1099,-0.8633,-0.2688,0.5573,5.7252,1.5954,0.9108
0,0,0,0,0,0,0,0
0,0,0,0,0,0,0,0
1780906929.359133,0.0647,-0.9397,-0.2024,1.6183,2.4046,2.145,0.9634
1780906929.559046,0.1572,-0.9634,-0.2812,-13.5344,9.5267,0.7481,1.0158
1780906929.7590854,0.0645,-0.9937,-0.249,-2.6947,21.6336,13.5649,1.0264
1780906929.9581745,0.0598,-0.8748,-0.3052,5.1756,29.6565,14.7863,0.9284
1780906930.1595218,-0.1672,-0.9609,-0.218,-9.7252,35.7863,19.6183,0.9995
1780906930.3603694,-0.166,-0.8689,-0.1636,-2.5344,29.3969,8.9847,0.8996
1780906930.5639439,-0.1238,-1.0259,-0.2266,4.145,45.5573,17.5267,1.0579
1780906930.7605438,-0.0579,-1.0239,-0.5837,-2.4198,-4.4198,-8.855,1.1801
1780906930.9645894,0.2061,-1.2793,-0.5266,-50.4733,26.0916,-38.0534,1.3987
1780906931.158941,0.053,-0.9727,-0.377,-27.3588,1.8931,-8.4351,1.0445
1780906931.3590896,0.0911,-0.9883,-0.2009,1.4275,-9.1832,12.0534,1.0126
1780906931.5590155,0.0334,-1.1404,-0.3982,-1.5267,1.1221,21.4351,1.2084
1780906931.7592773,-0.3162,-1.0342,-0.259,-39.2214,8.2901,20.5267,1.112
1780906931.959452,-0.1438,-0.7278,-0.0596,-16.8626,6.626,19.916,0.7442
1780906932.1589224,-0.1006,-0.9705,-0.2573,9.771,4.2366,-13.0763,1.009
1780906932.4046702,-0.061,-0.5461,-0.3906,45.0382,-14.6031,2.6565,0.6742
1780906932.5585346,0.304,-1.1135,-0.645,-14.4656,-21.8321,-0.5344,1.3223
1780906932.7591734,0.1182,-1.1199,-0.4458,-10.0916,-44.3359,-15.0305,1.2111
1780906932.9590971,0.0723,-0.9822,-0.3301,29.3588,-58.8779,-15.687,1.0387
1780906933.1585543,0.0063,-0.5271,-0.2617,8.5802,-16.8779,-0.9542,0.5885
1780906933.3584845,0.1128,-0.7166,-0.1929,-9.8473,-9.5878,-32.4122,0.7506
1780906933.5592947,-0.1616,-1.0391,-0.3037,3.1832,19.3282,-12.458,1.0945
1780906933.7598882,0.3064,-0.7856,-0.4929,-17.9313,24.2061,-7.1374,0.9768
0,0,0,0,0,0,0,0
0,0,0,0,0,0,0,0
1780906935.4001005,-0.0796,-0.9287,-0.4341,10.5496,-9.687,-10.7863,1.0282
1780906935.5986352,-0.1125,-0.8586,-0.4014,12.6489,-33.5496,-25.5573,0.9545
1780906935.800522,-0.0083,-0.9006,-0.5042,-9.6412,-25.6412,-17.4046,1.0322
1780906935.9997234,0.0679,-0.8799,-0.3208,-14.313,-22.3969,-15.9237,0.939
1780906936.1987643,-0.1338,-1.0825,-0.3298,13.626,-47.084,-5.4656,1.1395
1780906936.3984768,-0.1104,-0.8984,-0.5615,2.6412,-45.4198,-6.2519,1.0652
1780906936.6005123,-0.4312,-1.1936,-0.4924,-65.9466,-50.916,-14.1374,1.3613
1780906936.8007298,-0.2429,-0.8972,-0.3586,-27.5038,-39.1374,-18.626,0.9963
1780906937.000319,-0.2061,-1.1021,-0.2253,0.2519,-14.7023,-15.9924,1.1436
1780906937.2486107,-0.1792,-0.5916,-0.3708,1.1527,-43.4809,-23.0992,0.7208
1780906937.4052405,-0.0425,-0.7187,-0.0942,-1.1221,-60.0992,-14.5191,0.7261
1780906937.5988982,0.0083,-0.8975,-0.2561,4.4885,-60.3053,-12.9771,0.9333
1780906937.8094068,-0.0505,-1.0459,-0.2244,22.6718,-63.0229,-30.2748,1.0709
1780906938.0494616,-0.2573,-0.7163,-0.325,1.7328,-69.7252,5.1908,0.8276
1780906938.1986094,-0.0745,-1.0676,-0.4578,0.8015,-52.313,-21.2748,1.164
1780906938.399297,-0.2673,-0.9509,-0.3425,7.7099,-16.7939,-16.8397,1.0455
1780906938.5996041,-0.0337,-1.4988,-0.5579,-28.0382,-24.3511,-50.5115,1.5996
1780906938.7996454,-0.0854,-0.9758,-0.679,-63.0534,-29.7405,-54.7939,1.1919
1780906938.9987464,-0.0449,-0.8066,-0.292,-18.855,-33.1221,-14.7252,0.859
1780906939.1991336,-0.0056,-0.9497,-0.2957,12.4198,-57.8015,-6.3359,0.9947
1780906939.398585,0.116,-0.9919,-0.3811,15.5191,-75.9771,-8.6794,1.0689
1780906939.5984342,-0.1289,-0.6233,-0.251,-6.771,-70.2595,-3.7405,0.6842
1780906939.799163,-0.0366,-0.7439,-0.1606,7.9389,-36.1832,-2.3817,0.7619
0,0,0,0,0,0,0,0
0,0,0,0,0,0,0,0
1780906941.0615876,-0.1521,-0.9714,-0.2366,-8.8931,-32.5191,-3.0916,1.0113
1780906941.2618477,-0.2153,-0.946,-0.3196,-11.6183,-30.2977,-5.8244,1.0215
1780906941.462256,-0.0972,-0.9622,-0.3655,-5.3359,-39.5267,-24.3206,1.0338
1780906941.6631203,-0.0271,-0.8735,-0.4707,3.1145,-51.5115,-29.6718,0.9927
1780906941.8639941,0.042,-0.9673,-0.3647,9.6031,-51.1832,-33.3893,1.0346
1780906942.0663486,0.0569,-1.0103,-0.3337,-4.1374,-39.0611,-4.9542,1.0655
1780906942.264593,0.1619,-1.1443,-0.2505,3.8855,-25.3359,1.9008,1.1825
1780906942.4618905,-0.0486,-0.5598,-0.3591,36.2061,-12.9542,5.1679,0.6669
1780906942.6622694,-0.0422,-0.8894,-0.2871,13.5191,8.3206,-28.2977,0.9356
1780906942.86459,-0.1155,-1.0491,-0.3672,-3.7328,12.7939,-8.8092,1.1175
1780906943.0622325,-0.1975,-1.293,-0.5137,-15.4198,21.9542,3.8702,1.4052
1780906943.2615077,0.062,-0.9993,-0.395,-60.5573,17.9389,-27.1756,1.0763
1780906943.4614968,0.0093,-0.9243,-0.3337,-19.6183,12.6107,1.9695,0.9828
1780906943.6617799,0.0288,-1.0007,-0.2568,12.8168,-28.5191,6.084,1.0336
1780906943.8648112,-0.0686,-0.7896,-0.615,-3.9771,10.0916,19.7023,1.0031
1780906944.0618198,-0.106,-1.1436,-0.6233,-3.229,24.5725,1.5954,1.3067
1780906944.2638726,-0.165,-1.1248,-0.3394,-13.2748,27.0229,9.7099,1.1864
1780906944.4619877,-0.2026,-1.063,-0.2002,12.7481,51.6031,14.3359,1.1005
1780906944.6630712,-0.0581,-0.5254,-0.1802,-1.6718,26.9924,8.5115,0.5585
1780906944.8622797,-0.0696,-0.6875,-0.104,-7.0382,17.4351,1.8626,0.6988
0,0,0,0,0,0,0,0
0,0,0,0,0,0,0,0
1780906946.731991,-0.0305,-0.9512,-0.386,2.7481,11.0992,13.6641,1.027
1780906946.9293084,-0.1165,-0.916,-0.4265,3.8015,21.7176,13.2595,1.0171
1780906947.1314628,-0.1216,-0.9316,-0.4033,9.2824,28.1298,9.1221,1.0224
1780906947.3290107,-0.1182,-0.9338,-0.3352,-4.7252,31.6489,2.7176,0.9992
1780906947.5283937,-0.1619,-0.9944,-0.4084,-9.4046,51.6718,14.8931,1.0871
1780906947.729547,0.0642,-1.0801,-0.6055,-38.9542,67.4733,1.5267,1.2399
1780906947.9285102,0.0937,-0.8879,-0.6162,-25.0916,108.2672,24.771,1.0849
1780906948.1290503,0.1663,-0.7908,-0.4548,-5.4122,111.7786,30.0916,0.9273
1780906948.3292,0.2615,-0.8767,-0.4526,-2.6947,95.1298,49.0076,1.0207
1780906948.5284257,0.1284,-0.9919,-0.4683,21.6794,72.3817,53.3664,1.1044
1780906948.7290876,-0.053,-0.8247,-0.334,25.2824,57.2519,7.9847,0.8913
1780906948.9289458,-0.3018,-0.8979,-0.2893,5.5115,63.5725,38.6565,0.9905
1780906949.1288576,-0.0168,-0.9382,-0.3896,0.2061,30.0229,15.084,1.0161
1780906949.3288133,-0.1541,-0.9663,-0.2629,-5.542,25.1069,6.3664,1.0132
1780906949.529114,-0.053,-1.2051,-0.5603,-21.7481,-1.2672,-28.3511,1.33
1780906949.7286413,-0.135,-1.1177,-0.5762,-58.7176,0.0534,-37.687,1.2647
1780906949.9300053,0.0481,-0.9038,-0.386,-14.5573,-1.542,0.6947,0.984
1780906950.12848,0.0771,-0.9514,-0.3076,-1.2824,-28.542,4.1756,1.0029
1780906950.3284721,0.0696,-1.168,-0.5603,-19.3664,-3.8473,31.2748,1.2973
1780906950.5293105,-0.3721,-0.948,-0.4365,-49.3511,4.8015,39.0687,1.108
1780906950.729423,-0.2375,-0.8496,-0.2659,-6.7786,19.6412,21.5954,0.9214
0,0,0,0,0,0,0,0
0,0,0,0,0,0,0,0
1780906952.309791,-0.1694,-0.8325,0.0127,19.1756,-56.7176,7.9008,0.8497
1780906952.509679,-0.2305,-0.8923,-0.1677,3.0992,-79.4885,1.8168,0.9368
1780906952.7087848,-0.2346,-1.0413,-0.2366,-37.7786,-97.1679,8.1069,1.0933
1780906952.9092543,-0.0581,-1.0149,-0.1875,-19.5573,-60.1298,-20.2137,1.0337
1780906953.1101217,-0.2085,-0.9033,-0.3591,-21.4122,-5.5496,-32.4656,0.9942
1780906953.3137252,-0.0952,-0.866,-0.2126,-60.4351,8.8626,7.0992,0.8968
1780906953.5101001,0.0569,-0.8005,-0.4983,-10.9237,-30.2977,10.0,0.9447
1780906953.709725,-0.0679,-0.7207,-0.4458,29.8015,-6.3588,-18.3817,0.8502
1780906953.9100966,-0.1489,-0.8154,-0.5535,-12.6489,-10.7023,0.6641,0.9967
1780906954.109674,-0.1392,-0.7925,-0.4268,-12.9924,-7.0916,6.4427,0.9108
1780906954.309693,-0.1221,-0.6565,-0.4377,10.4198,3.626,0.5725,0.7984
1780906954.5095363,-0.2024,-0.7451,-0.4495,-1.4351,-14.4198,0.9313,0.8934
1780906954.7103024,-0.1248,-1.115,-0.6626,-4.458,-0.0763,-3.626,1.303
1780906954.911495,-0.0823,-1.0269,-0.6865,-6.1374,-9.8855,-4.771,1.2379
1780906955.109321,-0.2429,-1.0149,-0.5884,23.9542,-20.9237,-18.8626,1.198
1780906955.3096218,-0.2839,-1.0366,-0.3855,-8.145,0.1603,27.0763,1.1418
1780906955.5116987,-0.1133,-0.821,-0.4211,6.687,-8.0153,-14.4275,0.9297
1780906955.7096,-0.197,-0.949,-0.3779,4.626,-1.2748,0.0305,1.0403
1780906955.910036,-0.0845,-0.9072,-0.4297,-1.4046,-2.5496,-4.2366,1.0074
1780906956.1100178,-0.1328,-0.9568,-0.3628,3.4275,-3.2366,0.4962,1.0318
1780906956.308781,-0.1904,-1.1633,-0.4905,-24.7099,9.4122,14.7939,1.2768
1780906956.5101848,-0.1294,-1.0681,-0.5698,-23.1908,7.6718,16.2748,1.2175
1780906956.71028,-0.2175,-1.0662,-0.5161,4.8321,2.8855,1.9466,1.2043
1780906956.9088442,-0.0254,-0.8003,-0.3918,18.5114,-9.7328,-16.3282,0.8914
0,0,0,0,0,0,0,0
0,0,0,0,0,0,0,0
1780906958.8561373,-0.1533,-0.9946,-0.1482,0.6565,-13.6107,-13.1985,1.0172
1780906959.0552883,-0.2495,-0.9438,-0.196,-16.084,-23.626,3.084,0.9958
1780906959.25526,-0.1851,-0.9536,-0.2229,-24.7557,-41.3664,12.374,0.9966
1780906959.4552433,-0.0828,-1.0735,-0.1121,-6.9618,14.458,-33.2061,1.0825
1780906959.6547406,-0.4509,-0.9976,-0.2307,12.7481,25.9313,-6.4962,1.1188
1780906959.8547623,-0.0776,-0.8567,0.0405,11.4733,1.1603,15.8626,0.8612
1780906960.0547001,0.0713,-0.9729,-0.2549,-13.5649,-36.6718,-11.8244,1.0083
1780906960.2562797,0.1226,-0.9773,-0.2546,-16.2901,-20.3664,-6.8015,1.0173
1780906960.4552836,-0.0325,-1.0632,-0.0479,21.9237,-22.8473,19.8244,1.0648
1780906960.659606,-0.0547,-0.7854,-0.2776,42.6183,-22.1985,10.0534,0.8348
1780906960.857201,-0.2412,-0.9233,-0.0662,-16.7023,8.3664,11.0382,0.9566
1780906961.0581293,-0.1101,-0.9534,-0.1169,-7.7176,27.6336,-6.3588,0.9668
1780906961.3141885,-0.0396,-0.5876,-0.0261,25.9237,18.2366,-19.7405,0.5896
1780906961.4564397,-0.0366,-0.9402,-0.3228,-14.1374,13.6183,-6.5267,0.9947
1780906961.655246,-0.1355,-0.8196,-0.4106,-15.8015,14.3664,5.2137,0.9267
1780906961.8550968,-0.2048,-1.2039,-0.3726,-10.6718,7.2901,-0.313,1.2767
1780906962.0559502,-0.0315,-0.9751,-0.3611,11.9466,2.0763,5.7328,1.0403
1780906962.2552185,-0.1194,-1.2192,-0.1775,35.5115,-26.2061,1.7557,1.2379
1780906962.4614794,-0.1443,-1.032,-0.1724,-11.6183,3.7023,10.2137,1.0562
1780906962.65544,-0.1018,-0.9585,-0.0891,11.8626,-9.2214,3.4962,0.968
1780906962.8552945,-0.1965,-0.9243,-0.0862,-5.5038,-11.0382,5.2214,0.9489
1780906963.0554955,-0.1592,-0.9585,-0.1086,2.0687,-3.4885,2.7481,0.9777
1780906963.255534,-0.1929,-0.9695,-0.1516,-6.9237,-2.9695,-0.2519,1.0
0,0,0,0,0,0,0,0
0,0,0,0,0,0,0,0
1780906964.2091649,-0.2141,-0.9819,-0.1523,-0.4046,-7.2748,-0.8168,1.0165
1780906964.4086497,-0.1494,-0.9729,-0.1577,-1.9389,0.9924,-0.3282,0.9969
1780906964.6089213,-0.1882,-0.9583,-0.157,-0.9313,1.2672,1.1374,0.9891
1780906964.8229122,-0.1763,-0.9583,-0.1433,1.6794,-1.7099,1.4962,0.9848
1780906965.00942,-0.1868,-0.9714,-0.1492,-0.6794,-3.3359,0.0,1.0004
1780906965.207913,-0.1848,-0.9653,-0.1389,-2.8702,-1.9695,-0.3053,0.9926
1780906965.4102972,-0.1814,-0.9592,-0.1489,-3.4275,-0.1069,-0.2977,0.9875
1780906965.60924,-0.1714,-0.9592,-0.1675,-2.3893,-1.1756,-1.1603,0.9887
1780906965.8071675,-0.1592,-0.9644,-0.1472,-4.3893,-3.5115,-1.5802,0.9884
1780906966.0079029,-0.155,-0.9541,-0.1509,-6.8702,1.1756,-3.2366,0.9783
1780906966.2075782,-0.145,-0.9548,-0.1899,-5.8244,-1.1527,-1.8626,0.9843
1780906966.4076,-0.1714,-0.9641,-0.1697,-2.1145,-8.8015,-1.0916,0.9938
1780906966.6242566,-0.2126,-1.4055,-0.7329,-61.9771,27.7405,2.1145,1.5993
1780906966.8080826,-0.1392,-1.1506,-0.3687,-25.2901,8.2901,-14.0763,1.2162
1780906967.0076945,-0.1726,-0.915,-0.2402,28.9313,-4.5115,-10.7939,0.9617
1780906967.2086253,-0.1223,-0.9819,-0.3132,24.771,-5.4504,-15.458,1.0379
1780906967.4197376,-0.0132,-0.7229,-0.1672,22.0763,-18.4504,-12.2748,0.7421
1780906967.6075974,-0.0503,-1.0303,0.0271,22.6565,-24.4275,-9.1374,1.0319
1780906967.822123,-0.0208,-1.0313,0.0027,-16.1679,-32.2901,3.8779,1.0315
1780906968.0071936,0.0076,-0.9849,0.1748,-7.916,-25.1679,-2.8626,1.0003
1780906968.2189312,-0.092,-0.9758,0.0427,-3.0611,10.4046,-6.8779,0.9811
1780906968.4096317,-0.0549,-0.9221,0.0605,-2.2901,21.9924,-8.5573,0.9257
1780906968.6076999,-0.156,-0.9885,0.1189,4.6336,14.3053,-3.3206,1.0078
1780906968.807586,-0.2539,-0.9797,0.0674,-19.9008,-24.145,16.9924,1.0143
1780906969.0105627,-0.189,-0.9998,0.0659,-13.7481,-60.4504,-1.5496,1.0196
1780906969.21222,-0.0793,-0.9131,0.1165,4.0687,-32.9771,-11.9389,0.9239
0,0,0,0,0,0,0,0
0,0,0,0,0,0,0,0
1780906970.4284558,-0.0171,-0.8538,0.0203,17.8015,51.7405,-9.7481,0.8542
1780906970.6276176,-0.0081,-0.9185,0.01,3.2901,70.8626,7.084,0.9185
1780906970.8263192,-0.0674,-0.9619,-0.0242,-7.9389,102.5191,8.3359,0.9646
1780906971.0263298,-0.0833,-0.9365,0.0061,-19.0305,57.1221,-7.3511,0.9402
1780906971.2262132,-0.1445,-1.0129,0.0161,-12.9618,70.6794,-2.3282,1.0233
1780906971.425621,-0.0879,-1.0334,-0.0139,20.2977,54.687,-15.4733,1.0373
1780906971.625642,0.1091,-0.6479,-0.2017,15.8321,61.7939,9.0763,0.6873
1780906971.8260748,0.1304,-0.8728,-0.0735,4.6489,68.8015,14.4046,0.8855
1780906972.0260959,0.0767,-1.0562,-0.041,6.5649,13.1603,7.1221,1.0597
1780906972.2294092,0.1755,-1.2234,-0.0432,-1.0229,2.542,8.9084,1.2367
1780906972.4262733,-0.0273,-0.8289,-0.0298,-16.542,53.4885,18.8702,0.8298
1780906972.6262228,-0.0891,-0.8088,0.0391,-19.4198,54.374,24.3511,0.8147
1780906972.825646,-0.0559,-0.9436,0.0229,-0.5496,34.916,0.3969,0.9455
1780906973.026258,-0.0408,-1.2744,-0.1401,-19.3817,24.542,-23.5725,1.2827
1780906973.2267122,-0.085,-0.8608,-0.1753,-34.6107,18.0076,-6.7557,0.8826
1780906973.4262903,0.0283,-0.8521,0.0449,-24.8931,12.0611,-12.0076,0.8537
1780906973.6257665,-0.0027,-0.9736,-0.0112,11.8321,-20.2977,1.8168,0.9737
1780906973.8253067,0.0684,-0.968,-0.3091,1.0534,-7.0916,8.3435,1.0185
1780906974.025702,-0.4414,-1.3159,-0.1938,-21.8015,33.0458,25.1603,1.4014
1780906974.2261887,-0.1689,-0.9187,0.011,-15.0,64.3664,18.6412,0.9342
1780906974.4259348,-0.0066,-1.0342,-0.1843,4.5115,63.2061,-1.4885,1.0505
1780906974.6258616,-0.0391,-0.9202,-0.1826,-7.6565,49.4122,2.7099,0.9389
1780906974.825844,-0.3064,-0.7493,0.1833,-9.5344,-8.0076,5.3969,0.83
0,0,0,0,0,0,0,0
0,0,0,0,0,0,0,0
1780906976.1974103,-0.1333,-1.0417,-0.127,-9.6947,-28.7252,-1.8015,1.0579
1780906976.3928225,-0.0271,-0.8848,-0.1985,-28.5038,-25.5267,3.1756,0.9072
1780906976.5950675,-0.1924,-1.0615,-0.1318,-17.145,-25.6947,0.2366,1.0868
1780906976.7927313,-0.1812,-0.967,-0.2266,0.6412,-28.2137,-13.8626,1.0096
1780906976.9928205,-0.0847,-0.9326,-0.2488,9.5649,15.0229,-11.145,0.9689
1780906977.1927943,-0.1409,-1.031,-0.3171,-21.3511,8.7939,-3.4885,1.0878
1780906977.3927853,0.0222,-1.0684,-0.1318,-18.542,20.084,2.4885,1.0767
1780906977.5928807,0.0676,-0.707,-0.0811,2.771,45.1603,8.9008,0.7149
1780906977.7957869,0.1157,-0.9187,-0.2539,10.1756,91.0382,30.2214,0.9601
1780906977.9948456,0.2568,-0.9534,-0.3687,7.0305,98.3511,13.1985,1.0539
1780906978.1933408,-0.3699,-0.99,-0.3589,19.9466,117.3435,34.4198,1.1161
1780906978.393195,-0.1716,-1.0667,-0.3333,-6.7863,75.3282,33.5802,1.1306
1780906978.5933197,-0.0293,-1.1799,-0.1887,-15.6183,26.5573,-9.9084,1.1953
1780906978.7949739,-0.2021,-1.0557,-0.123,-0.8626,44.6489,15.1603,1.0819
1780906978.993277,-0.0186,-0.9978,-0.4194,33.2977,11.0611,1.8321,1.0825
1780906979.1931362,0.3408,-1.2134,-0.4429,-18.6107,40.6794,-21.0611,1.3359
1780906979.394011,0.074,-1.03,-0.1133,-6.8092,8.0,3.2977,1.0389
1780906979.5940363,0.0923,-1.0259,-0.1006,22.7099,-31.4809,0.4046,1.0349
1780906979.7928765,0.1133,-0.5823,-0.1953,11.1679,24.7786,-8.0534,0.6245
1780906979.992911,0.1108,-0.6494,-0.0554,2.5573,28.1908,1.2214,0.6611
1780906980.1930518,-0.0376,-1.0217,-0.1106,10.229,33.8855,-7.5954,1.0284
1780906980.394642,-0.2065,-1.1099,-0.1372,-0.626,30.4733,-2.0458,1.1372
1780906980.5932329,-0.0703,-0.6934,-0.0637,0.3511,4.9008,4.4656,0.6998
1780906980.8009727,0.0066,-0.9138,-0.1868,-4.6412,1.9313,17.4656,0.9327
1780906981.002898,0.0393,-1.0701,-0.3562,7.4275,-28.4656,19.8168,1.1285
0,0,0,0,0,0,0,0
0,0,0,0,0,0,0,0
1780906981.958184,-0.0881,-0.9604,-0.1597,-0.229,5.5802,4.8321,0.9776
1780906982.1582122,0.0493,-0.8879,-0.2922,-42.4198,32.4275,7.687,0.9361
1780906982.355562,0.2429,-0.9507,-0.3027,-13.9237,73.0763,-12.0229,1.0269
1780906982.554559,0.085,-0.9656,-0.2695,12.8473,71.1908,15.5954,1.0061
1780906982.754929,0.2944,-0.8901,-0.3279,2.4351,83.3588,15.0687,0.9932
1780906982.9562194,0.2329,-0.8616,-0.2563,0.4198,66.0763,16.7863,0.9286
1780906983.1560476,0.1323,-1.0652,-0.1648,9.3969,52.0687,21.4809,1.0859
1780906983.3583906,0.1311,-1.0703,-0.2061,-9.8931,81.4351,3.8702,1.0978
1780906983.555175,-0.1067,-0.9106,-0.1851,-3.1832,114.313,19.9084,0.9354
1780906983.8056757,-0.0886,-0.9143,-0.2021,-8.7557,96.3893,3.6947,0.9406
1780906983.9540374,-0.1379,-1.0,-0.1145,-6.855,54.771,3.2137,1.0159
1780906984.15504,-0.1165,-1.0432,-0.0706,-5.6031,39.9389,2.0,1.0521
1780906984.354343,0.0007,-0.73,-0.1477,-21.0916,22.7863,6.626,0.7448
1780906984.555142,-0.0364,-0.6873,-0.0937,-2.7939,24.7176,-8.9084,0.6946
1780906984.7554555,0.0454,-0.9421,-0.0862,15.2137,-9.3664,10.7328,0.9472
1780906984.9542308,0.2344,-1.0986,-0.124,24.8855,-21.229,-2.8168,1.1302
1780906985.2086651,0.1208,-0.7166,-0.1675,2.8473,34.145,13.7252,0.7457
1780906985.3542368,0.0674,-0.8867,-0.1824,-6.9924,21.5725,-9.5191,0.9078
1780906985.555472,-0.1348,-1.0293,-0.1211,4.4733,30.8702,0.5649,1.0451
1780906985.7552378,-0.0806,-1.1604,-0.2563,-22.0534,40.9847,2.3588,1.1911
1780906985.9554296,-0.2083,-0.9417,-0.1953,-28.2366,2.313,-11.9313,0.984
0,0,0,0,0,0,0,0
0,0,0,0,0,0,0,0
1780906988.2109504,-0.0347,-0.9705,-0.2002,-2.3817,-7.626,-11.3053,0.9915
1780906988.4105783,0.1487,-0.9497,-0.2793,-27.3359,5.6489,-15.8626,1.001
1780906988.6131573,0.092,-0.9321,-0.2031,-13.6718,6.2595,-5.687,0.9584
1780906988.810915,0.0354,-1.0432,-0.2434,25.5267,-14.1756,9.8015,1.0718
1780906989.0106192,-0.1738,-0.853,-0.2192,10.8168,-23.0305,-5.458,0.8977
1780906989.2096732,-0.3269,-1.106,-0.2244,-19.5038,-24.145,4.2595,1.1749
1780906989.410656,-0.1689,-1.0063,-0.1094,-11.8244,-24.7634,-10.3588,1.0263
1780906989.6111357,-0.0806,-0.6938,-0.3401,1.2748,-3.4885,-3.5344,0.7769
1780906989.810582,-0.0706,-0.6445,-0.3098,-0.2519,-25.6794,-3.7634,0.7186
1780906990.0100963,0.0361,-0.845,-0.3931,0.8779,-29.8321,-23.8168,0.9326
1780906990.2105877,-0.0542,-0.7734,-0.6589,-8.374,-95.5038,-7.1603,1.0175
1780906990.4102154,-0.127,-1.1201,-0.3481,6.4046,-60.5573,-44.5038,1.1798
1780906990.6107073,-0.1565,-0.7856,-0.366,8.6336,-46.5038,-21.8015,0.8807
1780906990.81051,-0.1694,-0.7668,-0.4021,-6.4733,6.0916,-14.1603,0.8823
1780906991.0098794,0.3989,-1.0925,-0.3716,-66.7328,-24.8855,-3.5802,1.221
1780906991.2097359,-0.0112,-0.8914,-0.5391,-29.7252,-33.6947,-4.8015,1.0417
1780906991.410325,-0.2383,-1.1245,-0.6467,2.6947,-3.2748,-37.0305,1.3189
1780906991.610512,-0.3284,-0.7566,-0.5535,36.1679,-13.0305,-0.4046,0.9933
1780906991.8104448,-0.2671,-0.8818,-0.3506,38.2137,-45.6031,-13.3206,0.9858
1780906992.010396,-0.3005,-0.9722,-0.2222,1.313,-77.7786,-10.7481,1.0415
1780906992.210396,-0.2134,-0.9768,-0.0479,18.0,-51.6336,-25.2061,1.001
1780906992.4104025,-0.1082,-0.9568,-0.3284,-26.9313,-29.3511,10.4427,1.0173
1780906992.6104093,0.1145,-0.8999,-0.0984,-2.8015,13.4275,2.9237,0.9125
1780906992.8139458,-0.0632,-1.073,-0.0498,23.9847,-18.7252,6.7328,1.076
1780906993.012415,-0.0552,-0.7097,-0.1528,33.0687,-38.4122,-6.5573,0.7281
1780906993.2099528,-0.217,-0.9868,-0.144,2.145,-26.1985,-4.3359,1.0206
0,0,0,0,0,0,0,0
0,0,0,0,0,0,0,0
1780906995.201503,0.0469,-1.0281,-0.1021,5.3053,21.2366,15.6412,1.0342
1780906995.3995981,0.1299,-0.9897,-0.1199,-2.6336,30.3053,6.4656,1.0054
1780906995.6006513,0.0593,-1.0305,-0.1404,-8.7634,36.1985,9.5038,1.0417
1780906995.800514,0.0081,-0.9727,-0.1538,-14.1298,32.8168,16.2977,0.9848
1780906996.000763,-0.1692,-0.8823,-0.2583,-20.7481,23.7557,11.7634,0.9348
1780906996.2002282,-0.1001,-0.8792,-0.3413,-38.7863,9.8168,10.5191,0.9484
1780906996.4004922,-0.1733,-0.8918,-0.623,-52.7252,12.0229,-3.3359,1.1016
1780906996.599673,-0.084,-0.8728,-0.7075,-66.4198,-5.0305,4.3969,1.1267
1780906996.8016653,-0.0779,-0.6575,-0.7502,-43.1298,-1.0305,0.7176,1.0006
1780906997.0008173,-0.0698,-0.55,-0.8303,-46.9542,0.7328,10.1069,0.9984
1780906997.2004755,-0.0208,-0.428,-0.7761,-28.4733,3.3435,-3.1985,0.8865
1780906997.400405,-0.1467,-0.4268,-1.1162,-35.6412,3.771,2.313,1.204
1780906997.6000197,-0.0945,-0.4238,-1.0947,14.7099,0.7176,0.8931,1.1777
1780906997.8000093,-0.0837,-0.2871,-1.0085,-20.0076,-1.084,11.1374,1.052
1780906997.9997847,-0.0698,-0.2878,-1.0022,-41.8626,-0.2137,8.1832,1.045
1780906998.2000604,-0.1121,-0.2097,-1.1624,-13.6489,0.374,5.6565,1.1864
1780906998.400243,-0.1077,-0.2231,-1.0803,1.1298,-0.7939,4.7863,1.1084
1780906998.6002698,-0.1182,-0.2502,-1.019,-0.2061,-4.2366,1.2443,1.056
1780906998.8001993,-0.0894,-0.1492,-0.991,6.8855,-2.1069,-6.5802,1.0061
1780906999.0003116,-0.0823,-0.1404,-1.0786,0.6031,-0.6031,-3.0153,1.0908
1780906999.2006614,-0.0811,-0.1543,-1.0823,-4.8702,-0.2214,-0.9466,1.0962
1780906999.4001694,-0.0889,-0.1958,-1.0918,-2.9618,0.0992,-1.6641,1.1128
1780906999.600347,-0.0903,-0.1926,-1.0823,5.9313,1.4962,-3.0,1.103
1780906999.8003812,-0.0957,-0.2307,-1.0771,24.5802,-3.0611,-7.0458,1.1057
1780907000.000301,-0.1047,-0.3833,-1.061,46.145,-3.9008,-11.6489,1.133
1780907000.2006679,-0.0908,-0.4851,-0.9409,44.8626,-4.3817,-8.8626,1.0625
1780907000.4003403,-0.0549,-0.5786,-0.8545,28.0611,-2.7176,-8.4885,1.0334
1780907000.600046,-0.0295,-0.6331,-0.7048,18.2595,-0.4122,-2.0992,0.9479
1780907000.7997696,-0.0193,-0.7297,-0.7769,-13.1374,-6.6183,-2.3053,1.066
1780907001.0036852,-0.0559,-0.821,-0.8555,9.5954,1.2901,1.2748,1.187
1780907001.200473,-0.0532,-0.6846,-0.7263,-0.1145,-2.0611,2.8092,0.9995
1780907001.400309,-0.0293,-0.7371,-0.7678,-5.9771,-2.6641,-0.7099,1.0647
1780907001.6004176,-0.0833,-0.7297,-0.7734,-0.2214,-3.3969,0.9389,1.0666
1780907001.8005261,-0.1187,-0.749,-0.7307,10.374,-0.9313,9.0076,1.0531
0,0,0,0,0,0,0,0
0,0,0,0,0,0,0,0
1780907004.6178734,0.0249,-0.9756,-0.0361,14.5115,-0.1221,-7.4656,0.9766
1780907004.8185394,0.0698,-0.9651,-0.0271,0.5573,9.6489,-3.7634,0.968
1780907005.018513,0.0618,-0.9932,-0.0435,-16.687,6.5344,-9.1069,0.996
1780907005.218507,0.0801,-0.9519,-0.0393,-1.7786,-1.0458,0.7557,0.9561
1780907005.4252565,0.022,-1.0098,-0.012,4.7099,-3.8015,3.6336,1.0101
1780907005.6189506,0.0266,-0.9541,-0.0564,-26.9771,-10.6031,-5.2748,0.9561
1780907005.8177366,0.0925,-0.9688,-0.1936,-35.1985,-9.7557,0.7939,0.9922
1780907006.0220206,0.0054,-0.9314,-0.3069,-50.1908,-15.626,2.6947,0.9807
1780907006.221371,0.0081,-0.9634,-0.4709,-47.9847,-12.5191,-2.5038,1.0724
1780907006.4704027,-0.0408,-0.7834,-0.6443,-45.8931,-14.1679,4.1756,1.0152
1780907006.6180854,-0.0654,-0.6699,-0.6997,-53.6565,-5.916,3.6947,0.9709
1780907006.818821,0.009,-0.6279,-0.8804,-46.3053,-0.6718,-3.1145,1.0814
1780907007.019803,-0.0325,-0.5413,-0.9314,-51.4351,0.6031,-12.7557,1.0777
1780907007.218313,-0.0715,-0.3645,-1.0737,-49.2443,2.0763,1.3359,1.1362
1780907007.4183414,-0.0442,-0.3022,-1.0774,-40.5496,2.0229,1.2595,1.1199
1780907007.6681905,-0.0234,-0.1592,-1.093,-15.916,-4.0153,4.6489,1.1048
1780907007.8182952,-0.0176,-0.0681,-1.0823,0.2595,-4.6412,-2.5496,1.0846
1780907008.0199819,-0.0396,-0.0691,-1.1782,-6.2443,4.5191,6.0611,1.1809
1780907008.218383,0.0105,-0.0044,-1.0513,-10.3893,0.9237,3.9466,1.0513
1780907008.418173,-0.012,0.002,-0.9714,6.7176,-5.5954,0.3817,0.9715
1780907008.6170769,-0.1045,-0.0852,-1.1636,-5.7939,-0.4504,-0.2901,1.1714
1780907008.8195164,0.0161,-0.0342,-1.019,-3.4962,-5.8626,0.8015,1.0197
1780907009.0185583,-0.0305,0.0554,-1.0471,-14.0458,-1.9924,-5.0458,1.049
1780907009.2180662,-0.0266,0.0723,-1.1426,-46.1527,6.8855,-5.1603,1.1452
1780907009.4684124,-0.0547,0.0469,-1.1721,0.5191,-2.916,-3.9466,1.1743
1780907009.6172996,0.001,0.0295,-1.0354,5.1069,-1.916,1.8244,1.0358
1780907009.818405,-0.0413,-0.0142,-1.1753,8.2519,-3.4885,-3.2137,1.1761
1780907010.0186427,0.011,-0.0554,-1.1809,32.0534,-2.2748,-1.4733,1.1823
1780907010.2233062,-0.0176,-0.1604,-1.0254,67.0382,-2.7099,-9.6183,1.038
1780907010.4210925,0.0073,-0.5117,-1.0854,73.5649,1.7405,-0.229,1.2
1780907010.6185708,0.0664,-0.6133,-0.7266,70.5649,7.1145,-9.1374,0.9531
1780907010.8180375,0.0105,-0.7502,-0.561,61.0916,3.145,1.313,0.9369
1780907011.018259,-0.0059,-0.8804,-0.4268,61.6031,7.7405,2.0611,0.9784
1780907011.2192798,0.03,-0.8455,-0.1025,41.0763,13.1221,3.8473,0.8522
1780907011.418746,0.0454,-0.9705,-0.2007,6.8168,9.855,-5.1679,0.992
0,0,0,0,0,0,0,0
0,0,0,0,0,0,0,0
1780907012.6974573,0.1458,-0.9707,-0.1558,-9.8931,15.8626,12.5496,0.9939
1780907012.8968768,0.1345,-0.9475,-0.248,-6.5802,28.8855,15.2519,0.9886
1780907013.0979393,0.0256,-0.9253,-0.1633,5.4275,37.0916,10.1908,0.9399
1780907013.2972822,-0.0535,-0.8596,-0.2717,13.1145,28.2214,19.0153,0.9031
1780907013.498239,-0.1335,-0.9048,-0.1685,-14.0305,4.7634,16.0916,0.93
1780907013.697278,-0.1567,-1.0229,-0.2488,-19.6489,-37.1145,-13.9466,1.0644
1780907013.8985274,-0.168,-1.0667,-0.3127,0.5954,17.4886,14.0458,1.1242
1780907014.0985625,-0.0542,-0.6799,-0.2593,23.458,1.8092,17.2672,0.7297
1780907014.2972584,-0.1228,-0.916,-0.2122,22.7481,20.7405,28.8855,0.9482
1780907014.4973862,-0.0876,-1.1204,-0.1282,5.374,-20.855,8.1985,1.1311
1780907014.6994314,-0.1941,-1.0574,-0.4094,-9.3588,-48.7634,-10.0076,1.1504
1780907014.8969908,-0.3796,-1.1594,-0.3206,-55.7863,-61.8168,-7.145,1.2614
1780907015.097337,-0.0608,-1.0181,-0.2844,-15.8931,35.771,6.855,1.0588
1780907015.2973206,-0.3562,-1.1201,-0.5088,-19.4122,97.4809,30.2519,1.2808
1780907015.49808,0.1375,-0.9951,-0.4592,-23.9466,117.8702,-3.2214,1.1046
1780907015.6978278,-0.022,-0.8843,-0.4021,10.6183,154.8779,43.9237,0.9717
1780907015.8978019,0.2358,-0.8289,-0.3862,13.9466,108.9771,29.916,0.9444
1780907016.0976832,-0.0239,-0.9307,-0.2786,12.5649,90.771,18.6794,0.9718
1780907016.2991564,0.0,-0.9712,-0.1597,-6.3511,92.9008,0.4046,0.9842
1780907016.4968812,-0.3752,-0.8511,-0.0959,11.7786,59.5115,13.1145,0.9351
1780907016.6994052,-0.1694,-0.9465,-0.0391,6.4733,45.9542,7.7557,0.9624
1780907016.8978834,-0.3057,-0.9163,0.0635,13.1374,17.9542,-10.771,0.968
1780907017.0963328,0.0496,-0.5615,-0.1692,35.0153,13.9542,-18.1985,0.5885
1780907017.2971292,-0.0198,-0.6418,0.03,25.8779,24.4275,-10.8855,0.6429
1780907017.4969428,-0.1982,-0.9417,0.0513,18.7481,-15.0534,2.5038,0.9637
1780907017.6970642,0.1396,-1.175,0.0122,-9.1069,-19.5878,0.0305,1.1834
1780907017.8997836,-0.072,-0.7017,-0.1719,26.145,-3.7939,0.458,0.726
1780907018.1008563,0.0413,-0.823,-0.0413,9.6412,-12.9466,-18.8397,0.8251
1780907018.2960854,-0.1472,-1.0842,-0.0908,4.5267,-8.3664,-10.9695,1.0979
1780907018.4968314,-0.1299,-1.1655,-0.1736,-16.0076,44.5954,-1.5725,1.1855
1780907018.6968322,-0.1655,-0.7346,-0.1758,-10.8168,9.2901,-0.3206,0.7733
0,0,0,0,0,0,0,0
0,0,0,0,0,0,0,0
1780907019.8283653,-0.3374,-0.9497,-0.0027,-2.9389,-22.1985,14.6489,1.0079
1780907020.0269845,-0.1414,-0.8491,-0.0422,-11.2214,-18.4962,0.1374,0.8618
1780907020.2287712,-0.252,-1.0281,-0.0525,-4.7328,-8.5496,-12.6107,1.0598
1780907020.4274638,-0.1624,-1.0962,-0.1699,-7.3588,-11.229,-19.0916,1.1211
1780907020.6273613,0.1838,-0.8809,-0.2356,-20.4656,-2.9237,-40.0687,0.9302
1780907020.8268905,0.0601,-0.8594,-0.0488,-12.8626,13.6947,-12.2519,0.8629
1780907021.0779996,0.1541,-1.0427,-0.04,14.2595,-25.1221,1.4504,1.0548
1780907021.2299044,-0.0532,-0.7964,-0.522,20.9695,-3.1145,25.9695,0.9537
1780907021.4274857,0.0383,-1.1948,-0.3037,1.7634,3.8626,-5.1985,1.2334
1780907021.6274493,-0.1213,-1.1787,-0.2283,-23.5038,5.4275,2.2137,1.2067
1780907021.8278685,0.0022,-1.2385,-0.2209,-4.9542,54.6641,-1.8702,1.2581
1780907022.027379,0.0251,-0.8088,-0.2043,-42.8626,47.8168,-10.6107,0.8346
1780907022.2273667,-0.0527,-0.8579,-0.0869,-15.0076,20.7405,5.9313,0.8639
1780907022.4278338,0.009,-0.9421,-0.1008,-1.9313,-40.9847,6.2443,0.9476
1780907022.6277597,0.0505,-0.5981,-0.3494,26.6489,-2.4733,18.458,0.6945
1780907022.8273377,-0.4814,-1.3369,-0.3103,-21.687,39.3969,-11.0992,1.4544
1780907023.0273569,-0.1731,-1.1658,-0.3315,-9.5954,66.9542,4.8855,1.2243
1780907023.227701,-0.2646,-0.9192,-0.3188,14.7328,112.1603,10.9542,1.0083
1780907023.428262,0.1785,-0.719,-0.2837,12.2672,74.7863,-0.5038,0.7933
1780907023.629419,0.0847,-1.3723,-0.5554,46.3588,63.4885,-3.855,1.4829
1780907023.8288813,0.2598,-1.144,-0.2407,0.8321,38.0382,-11.2137,1.1976
0,0,0,0,0,0,0,0
0,0,0,0,0,0,0,0
1780907025.8968816,-0.1118,-1.05,-0.1533,13.6641,49.0076,6.5802,1.0671
1780907026.095426,-0.0691,-0.7258,-0.1819,19.084,35.916,-4.6336,0.7515
1780907026.29644,0.2312,-0.7854,-0.2986,3.7328,34.313,-6.3359,0.8715
1780907026.4975119,0.0493,-0.8555,-0.2,0.8015,43.5802,5.4275,0.8799
1780907026.6951668,0.105,-0.9832,-0.1963,1.4809,-9.6107,19.458,1.008
1780907026.8959992,0.0925,-0.9495,-0.2561,25.8473,-28.4122,12.6947,0.9877
1780907027.0953963,-0.4089,-1.3362,-0.2925,-58.4351,-24.1069,35.2137,1.4276
1780907027.295512,-0.1714,-0.9058,-0.1294,-27.5725,-3.6718,11.0611,0.9309
1780907027.49938,-0.0652,-1.1025,-0.1328,14.1069,37.2519,0.0763,1.1124
1780907027.6960342,-0.0825,-0.5139,-0.2488,4.0763,43.8092,11.6565,0.5769
1780907027.8955586,-0.0442,-0.6929,-0.1462,21.0,42.4275,6.1679,0.7095
1780907028.0957181,-0.0679,-0.9321,-0.083,28.1985,3.3588,15.3969,0.9383
1780907028.2990472,0.074,-1.1382,-0.2322,-13.1298,-15.374,-1.9237,1.164
1780907028.4951808,-0.2361,-1.4417,-0.436,-45.8473,-3.9618,-3.8092,1.5245
1780907028.6956728,-0.1458,-1.0898,-0.1758,-32.9313,-20.6718,-6.0,1.1135
1780907028.9447303,-0.0535,-0.9597,-0.0623,-6.313,13.771,3.5802,0.9632
1780907029.095844,-0.0903,-1.1421,-0.4456,7.9389,5.6336,-4.313,1.2292
1780907029.295282,0.198,-1.3757,-0.2783,-56.7786,30.3893,-28.9389,1.4175
1780907029.4979742,0.0969,-0.9917,-0.1829,-25.6412,-1.3206,-16.6641,1.0131
1780907029.6953373,-0.0161,-0.9656,-0.1882,-1.2824,-54.313,-0.5802,0.9839
1780907029.8950086,-0.0847,-0.9507,-0.3613,0.0611,-50.8015,1.1527,1.0206
1780907030.0984356,-0.1094,-1.0906,-0.3052,-6.1908,-30.626,-4.4885,1.1377
0,0,0,0,0,0,0,0
0,0,0,0,0,0,0,0
1780907032.86102,-0.1038,-0.9724,-0.1875,-7.8626,-24.7252,-4.4275,0.9957
1780907033.0611851,-0.1223,-0.9612,-0.2144,-8.3893,-12.2977,2.1069,0.9924
1780907033.2618337,-0.1636,-1.0107,-0.2126,-10.7634,0.1527,0.6336,1.0457
1780907033.4638305,-0.1096,-0.9382,-0.2407,-1.6336,20.0992,11.5802,0.9748
1780907033.6653233,-0.1106,-0.9983,-0.1702,9.626,46.626,-2.5725,1.0187
1780907033.8613956,-0.2688,-1.1594,-0.1914,-11.4351,9.8855,1.8397,1.2055
1780907034.0607553,-0.0618,-0.8313,-0.2559,14.0076,5.7939,12.9313,0.872
1780907034.2610424,0.0464,-0.8857,-0.28,34.6031,27.9924,17.8321,0.9301
1780907034.4629414,-0.0046,-0.9458,-0.3135,18.0458,12.3817,15.6489,0.9964
1780907034.6613004,-0.0481,-1.041,-0.1807,8.8321,-36.916,2.4809,1.0577
1780907034.8617876,0.2307,-0.6531,-0.4028,7.6794,9.0687,-19.2214,0.8013
1780907035.0617235,-0.3594,-1.0037,-0.0791,10.1985,10.7557,-9.0916,1.069
1780907035.2618454,-0.2305,-0.9128,-0.1853,34.6336,51.9008,10.1221,0.9595
1780907035.461024,-0.2075,-0.9326,-0.2065,9.1603,35.7863,2.0534,0.9775
1780907035.662178,-0.2324,-0.9763,-0.1025,21.4886,39.8397,11.4504,1.0088
1780907035.86153,-0.2324,-0.7297,0.0471,36.3817,40.9847,22.8092,0.7673
1780907036.06195,0.0586,-0.8777,-0.2253,17.0,42.4809,-1.9924,0.908
1780907036.261961,0.0344,-0.9819,-0.4114,1.1985,34.0382,-5.855,1.0652
1780907036.4616249,0.0374,-1.0549,-0.3423,-4.626,-7.4046,-12.0382,1.1097
1780907036.6616216,-0.0098,-0.9619,-0.2839,-1.8168,-27.855,3.3511,1.003
1780907036.8618426,-0.1348,-0.8225,-0.3748,3.5344,-28.0,14.084,0.9139
1780907037.0611844,-0.0906,-0.927,-0.2144,-41.3359,-65.0305,7.8702,0.9558
1780907037.2611058,-0.1401,-0.8252,-0.0627,-10.6107,-21.8321,-0.8092,0.8394
1780907037.4609902,-0.2297,-0.8792,-0.2881,11.3206,-16.2366,-16.4427,0.9532
1780907037.6626463,-0.1587,-0.9919,-0.4116,-33.7863,-33.8855,-20.8092,1.0856
1780907037.8620398,-0.1472,-1.1726,-0.1147,-26.0305,-19.3588,-6.0992,1.1874
0,0,0,0,0,0,0,0
0,0,0,0,0,0,0,0
1780907039.5593443,-0.0486,-0.8982,-0.2295,-0.313,-27.7863,15.1298,0.9283
1780907039.7651832,-0.3269,-0.9751,-0.2573,-19.3893,-39.8168,20.7405,1.0601
1780907039.972592,-0.0955,-0.9055,-0.304,1.2061,-13.7863,12.626,0.9599
1780907040.1792593,-0.1216,-0.9946,-0.1472,-16.084,-29.7863,-24.0687,1.0128
1780907040.3411705,-0.1282,-1.0278,-0.2407,13.0916,-2.5496,6.542,1.0634
1780907040.5820544,-0.0376,-0.7522,-0.2947,26.8015,-22.3664,-28.9771,0.8087
1780907040.741183,-0.0552,-1.0305,-0.28,4.4962,3.0916,2.2595,1.0693
1780907040.9415503,0.0166,-0.991,-0.1736,-4.3664,6.8321,6.5191,1.0062
1780907041.1436884,0.0188,-1.0552,-0.1965,-7.8015,-23.3969,14.374,1.0735
1780907041.3413534,0.0034,-0.9966,-0.2686,4.4122,-2.7939,14.1832,1.0321
1780907041.5412395,-0.3022,-1.1008,-0.4026,-7.9313,44.3053,27.3664,1.2105
1780907041.7420423,-0.0518,-0.8428,-0.3455,-5.1679,68.7634,30.1145,0.9123
1780907041.9483833,-0.1743,-0.8796,-0.2004,5.626,26.4046,-9.0076,0.9189
1780907042.156248,-0.165,-1.0942,-0.2329,16.8855,40.8626,-14.3511,1.1309
1780907042.362779,-0.0369,-0.6191,-0.259,25.9237,7.8015,5.3282,0.6722
1780907042.5410523,0.1819,-1.1177,-0.4661,23.3969,-7.8626,-6.5038,1.2245
1780907042.7414246,0.0095,-1.0645,-0.2966,-4.3969,-24.8321,3.7557,1.1051
1780907042.9702408,0.0542,-1.0146,-0.2124,15.2824,-20.1603,5.9924,1.0381
1780907043.1724036,0.0806,-0.7449,-0.2883,12.3206,6.8244,-5.6641,0.8028
1780907043.3801684,-0.2371,-0.9412,-0.4143,3.8855,59.5954,27.4886,1.0553
1780907043.5410137,-0.291,-0.98,-0.1245,4.145,81.4046,23.0382,1.0298
1780907043.7419062,-0.2173,-1.0178,-0.2893,34.7481,104.0687,15.4656,1.0802
0,0,0,0,0,0,0,0
0,0,0,0,0,0,0,0
1780907045.4559677,0.1377,-0.9729,-0.2371,-12.4198,39.5496,9.3588,1.0108
1780907045.6567287,0.175,-0.9521,-0.3801,-5.0076,17.4122,10.2137,1.0401
1780907045.8613918,0.2166,-0.9065,-0.3286,-6.4427,38.7634,26.9237,0.9882
1780907046.0587153,0.0156,-0.9641,-0.2998,10.0534,36.7863,42.0992,1.0098
1780907046.2563484,-0.1177,-1.1213,-0.2053,13.4504,51.6794,30.8015,1.146
1780907046.4568121,-0.2727,-0.8892,-0.1257,25.5038,32.9237,34.1832,0.9385
1780907046.6663284,0.0161,-0.9744,-0.2195,-14.6107,22.8931,0.5344,0.9989
1780907046.8591049,-0.2566,-1.093,-0.2915,13.6031,50.4275,-4.374,1.16
1780907047.0566583,-0.2212,-1.0696,-0.0349,-46.542,20.1985,0.6336,1.0928
1780907047.2553267,0.1619,-0.9873,-0.4092,40.4885,42.1908,1.9618,1.0809
1780907047.4554904,0.1184,-0.991,-0.0049,75.7939,27.8168,-20.5725,0.998
1780907047.6566265,0.1348,-0.9841,0.0017,27.8397,-4.5802,14.9847,0.9933
1780907047.9130464,0.092,-1.0793,-0.1265,-9.3511,-0.6336,12.3969,1.0906
1780907048.0577064,-0.0972,-1.1777,-0.1672,-36.4504,11.0763,30.0,1.1935
1780907048.2559009,0.0271,-0.8784,0.0398,0.7481,17.6031,34.3969,0.8797
1780907048.455756,0.0542,-0.9397,-0.2383,-4.6183,56.1679,-6.8855,0.971
1780907048.655513,0.001,-0.46,-0.3867,-0.0611,36.2748,-7.5496,0.6009
1780907048.855967,0.043,-0.6843,-0.0671,-14.4275,26.0076,22.0992,0.689
1780907049.0565963,0.1316,-0.9456,-0.1655,0.0305,-5.4656,-0.4122,0.9689
1780907049.2574763,0.1138,-1.217,-0.1873,7.8626,-20.7405,1.2901,1.2366
1780907049.4560664,0.0718,-0.6919,-0.2874,20.229,14.6183,11.8931,0.7526
1780907049.6555862,0.2598,-0.8083,-0.033,-14.0382,47.771,-1.855,0.8497
1780907049.855427,-0.0212,-0.9531,-0.1863,-9.5344,44.0458,-3.9084,0.9714
1780907050.0560076,-0.0723,-1.1807,-0.2095,-8.3511,59.855,5.0534,1.2013
1780907050.2568846,-0.1541,-0.5652,-0.3457,23.2901,20.3359,16.145,0.6802
1780907050.4590333,0.1206,-0.7954,-0.0098,29.3282,7.687,2.7863,0.8046
1780907050.6553738,0.0276,-0.9878,0.0312,30.0992,-36.8855,-6.7328,0.9887
0,0,0,0,0,0,0,0
0,0,0,0,0,0,0,0
1780907051.7823915,0.146,-0.9741,-0.1689,-11.374,-8.1756,-8.3511,0.9994
1780907051.9826322,0.1108,-0.9355,-0.1621,-8.7405,-3.1145,-5.2977,0.9559
1780907052.1813707,-0.0012,-1.061,-0.3052,-20.0992,-9.3588,22.7176,1.1041
1780907052.3814244,-0.0845,-1.1096,-0.3245,-31.1145,-11.3282,24.1069,1.1592
1780907052.5817924,-0.1057,-0.929,-0.4175,-34.3359,32.3664,21.0305,1.0239
1780907052.7816598,-0.1887,-0.8625,-0.4128,-11.7023,56.3817,6.2824,0.9747
1780907052.9808342,-0.1733,-0.7749,-0.5657,-35.229,47.3359,24.1221,0.9749
1780907053.1837928,-0.0623,-0.9851,-0.4109,7.7023,68.1527,14.9542,1.0692
1780907053.3815296,-0.0679,-0.8491,-0.6711,-22.1832,55.0382,3.4275,1.0845
1780907053.5825434,-0.1587,-0.7502,-0.5776,-54.3588,-19.1756,33.2443,0.9601
1780907053.7817082,-0.1313,-0.9026,-0.7058,-37.3969,15.0534,21.3206,1.1533
1780907053.9815342,-0.3306,-0.438,-0.5403,0.6107,31.8092,28.1298,0.7701
1780907054.1820924,-0.0525,-0.4253,-0.738,-13.6183,-3.7939,-25.1221,0.8534
1780907054.3820658,-0.2124,-0.4758,-0.9402,48.9466,-7.4427,5.9847,1.0749
1780907054.6321938,-0.1079,-0.634,-0.8699,6.5191,11.4351,-1.1221,1.0818
1780907054.7883344,0.0032,-0.6321,-0.95,-0.4504,23.7176,10.916,1.141
1780907054.9816265,0.0737,-0.5181,-0.8752,16.5573,14.6565,1.7863,1.0197
1780907055.2321775,0.0925,-0.4988,-0.918,40.4656,8.5649,-9.7176,1.0488
1780907055.383641,0.1384,-0.5957,-0.7988,65.9237,-4.6489,-13.7557,1.0061
1780907055.5823045,0.0303,-0.9858,-0.761,19.5496,-7.3053,-2.9618,1.2458
1780907055.7837026,-0.0779,-1.3667,-0.1523,54.5954,-3.0916,4.0992,1.3774
1780907056.0326998,0.061,-0.9436,0.0947,36.9847,5.6565,6.9847,0.9503
1780907056.1836238,0.167,-0.9182,-0.0442,9.3206,2.6641,7.687,0.9343
1780907056.3817737,0.1453,-0.9675,-0.0537,6.3435,7.8015,1.3206,0.9798
1780907056.5823338,0.0952,-0.9458,0.092,-0.2061,3.0992,2.0916,0.955
0,0,0,0,0,0,0,0
0,0,0,0,0,0,0,0
1780907057.8022282,0.1118,-1.0156,-0.0801,-7.9847,0.4809,12.4733,1.0249
1780907058.0049906,0.1521,-0.9688,-0.1025,7.2214,-1.2443,3.0458,0.986
1780907058.2027915,0.0654,-0.9988,-0.0522,-7.7099,0.0992,1.3511,1.0023
1780907058.4021747,0.0676,-0.9827,-0.0825,-9.5878,0.4122,0.3664,0.9884
1780907058.6024454,0.1011,-0.9836,-0.0845,-1.8092,3.5038,-0.2061,0.9924
1780907058.8018463,0.0979,-1.0264,-0.1086,-3.6718,20.8779,-0.8931,1.0367
1780907059.0025437,0.0967,-1.0186,-0.0876,-2.4809,42.5878,5.6718,1.0269
1780907059.201581,0.0842,-0.99,-0.073,6.1374,74.2366,1.145,0.9962
1780907059.4416878,0.0015,-1.0122,-0.0698,12.6183,44.6718,8.2061,1.0146
1780907059.6013453,-0.032,-0.9827,-0.0107,-7.1298,-3.374,-13.3053,0.9832
1780907059.8512511,-0.0371,-0.9775,-0.0139,0.6183,-54.7939,-0.1145,0.9783
1780907060.0018995,0.0078,-0.96,0.0261,-3.855,-90.9389,3.8855,0.9603
1780907060.202023,0.0566,-1.0022,-0.0537,-0.2595,-95.0153,-0.0229,1.0052
1780907060.4030914,0.135,-1.0034,-0.093,2.9618,-75.6412,-4.9771,1.0167
1780907060.6021903,0.1763,-0.959,-0.125,-2.8779,2.626,-3.0763,0.983
1780907060.8050804,0.1089,-0.9756,-0.0632,-12.9084,43.3588,-1.916,0.9837
1780907061.0013998,0.1194,-0.9697,-0.1011,-2.1527,59.9924,-0.8779,0.9823
1780907061.2015185,0.0149,-1.0327,-0.1606,-5.9237,69.1221,3.0305,1.0452
1780907061.4017832,-0.0696,-0.9885,-0.0554,-5.5344,23.3282,-3.6489,0.9925
1780907061.601742,0.0652,-0.8787,-0.1257,6.4122,-28.0611,-2.8855,0.89
1780907061.8041258,0.0081,-1.0425,-0.0535,-20.1603,-36.4122,15.0,1.0439
1780907062.0019097,-0.1082,-0.8223,-0.0759,-3.6489,-9.0992,5.0305,0.8328
1780907062.201934,-0.1616,-1.2058,-0.3479,-30.458,23.6947,13.4504,1.2654
1780907062.4020977,-0.0088,-0.9304,-0.8706,-40.6336,14.2672,8.3817,1.2742
0,0,0,0,0,0,0,0
0,0,0,0,0,0,0,0
1780907063.867379,-0.0693,-0.9883,-0.0557,4.9771,-14.084,0.4733,0.9923
1780907064.0678334,-0.0305,-1.0239,0.0181,1.8473,-4.542,4.7023,1.0245
1780907064.2683032,0.0378,-0.9763,-0.0493,-0.4504,7.2137,4.3359,0.9783
1780907064.4677603,-0.134,-0.9543,-0.1646,-12.8092,28.9618,4.4275,0.9777
1780907064.6706362,-0.1265,-0.9309,-0.1594,-32.2672,-7.4733,8.771,0.9529
1780907064.8672373,-0.093,-0.9307,-0.2,-41.542,-41.1527,5.1298,0.9564
1780907065.067346,-0.0251,-0.9067,-0.356,-26.8015,-25.4198,-11.4427,0.9744
1780907065.2680805,0.0388,-0.8794,-0.5142,-58.6565,23.7328,-41.1145,1.0194
1780907065.4689534,-0.0747,-0.9517,-0.6663,-30.6107,0.0076,7.0153,1.1641
1780907065.6672466,0.0645,-0.8489,-0.7241,-43.0611,0.626,1.8168,1.1176
1780907065.8672707,0.0486,-0.6943,-0.7583,-22.542,3.9695,2.8397,1.0293
1780907066.0678256,0.0728,-0.7739,-0.6108,17.7634,-14.9466,9.5954,0.9886
1780907066.2672515,0.0098,-0.6853,-0.4316,67.4657,-6.0916,15.4122,0.81
1780907066.4683702,-0.0437,-0.9851,-0.511,65.6718,-6.0992,5.9542,1.1106
1780907066.6680818,-0.04,-1.104,-0.3518,87.4427,-12.1679,7.2519,1.1594
1780907066.8674736,-0.1921,-0.7563,-0.1172,34.4885,-21.0305,0.2595,0.7891
1780907067.0679834,0.0835,-1.085,0.0605,58.4198,-5.2748,1.6794,1.0899
1780907067.2680652,0.033,-0.9165,0.3357,7.5038,-4.9008,-2.5344,0.9766
1780907067.4681246,0.104,-0.9185,0.0979,-23.9466,-4.542,5.229,0.9295
1780907067.6673357,-0.0078,-0.8826,0.1414,32.0458,-0.0382,-15.6718,0.8939
1780907067.8729913,-0.0562,-0.8562,0.0847,4.4733,-2.0763,-3.1527,0.8622
1780907068.0710797,0.0098,-0.9377,0.1826,-4.8397,4.6412,-5.1603,0.9554
1780907068.267317,-0.0354,-0.8679,0.3196,8.458,27.2748,2.0763,0.9256
1780907068.467337,0.0178,-1.062,0.1558,-21.4122,-7.7023,6.8397,1.0735
1780907068.6675532,-0.0249,-1.1565,0.0808,-38.2977,-11.8473,-26.458,1.1596
1780907068.8700092,-0.0234,-0.9688,0.1038,-11.1298,-2.2366,-3.3206,0.9746
1780907069.0674489,-0.0181,-0.9812,0.1313,-3.5649,-0.5802,-3.1145,0.9901
0,0,0,0,0,0,0,0
0,0,0,0,0,0,0,0
1780907069.9437237,-0.0071,-1.0103,0.0728,-7.3969,-2.084,-2.6565,1.0129
1780907070.1431558,0.0281,-0.9507,0.0874,-16.1756,-0.4351,-4.8015,0.9551
1780907070.3435493,0.0452,-1.0181,-0.0339,-17.229,4.1298,2.1603,1.0196
1780907070.5436313,0.0317,-0.9597,-0.0586,-13.5802,2.2824,0.7405,0.962
1780907070.7436857,-0.0024,-1.0132,-0.0686,-30.3359,2.916,6.7023,1.0155
1780907070.9435925,0.0366,-1.0388,-0.2563,-21.1298,8.3893,16.5114,1.0706
1780907071.143569,0.0388,-0.936,-0.4971,-45.9313,9.9237,7.5496,1.0605
1780907071.3447504,0.0327,-0.9756,-0.5469,13.3053,-0.0763,12.9389,1.1189
1780907071.5435617,0.0432,-0.8596,-0.3955,38.6718,-0.3435,1.1527,0.9472
1780907071.7436304,-0.0288,-0.9143,-0.353,40.0382,6.2519,-2.8015,0.9805
1780907071.9438078,0.0444,-0.823,-0.2288,60.084,-2.0382,-20.0,0.8554
1780907072.1450374,-0.1943,-1.3479,-0.0203,6.1527,-35.3282,-4.5573,1.362
1780907072.342982,0.104,-1.1116,-0.0969,-15.3282,-33.9924,8.0229,1.1206
1780907072.543597,0.0046,-1.0354,-0.0291,1.1374,-32.3664,14.9084,1.0358
1780907072.7429454,-0.1355,-0.9734,0.01,-4.9084,-55.374,22.0229,0.9828
1780907072.9440036,-0.114,-0.9663,-0.0161,-14.1145,-87.1221,23.5802,0.9731
1780907073.1411786,-0.0776,-0.9973,0.0391,-9.0,-36.7252,13.9695,1.0011
1780907073.3418934,-0.0552,-0.9531,0.0222,-2.6947,28.374,-9.0076,0.955
1780907073.5418909,-0.1868,-1.0442,-0.0352,3.4962,76.7481,-14.3359,1.0613
1780907073.742005,-0.2522,-1.0398,-0.0029,10.916,81.7405,-22.3282,1.0699
1780907073.9417088,-0.0063,-0.9915,-0.074,-9.7557,100.0763,-13.8244,0.9942
1780907074.1429427,0.0515,-1.033,-0.0547,-8.626,75.3435,-17.3282,1.0357
1780907074.3429363,0.054,-0.9666,-0.0803,-14.4198,63.9466,-13.4275,0.9714
1780907074.5434394,0.0312,-0.9954,0.0002,2.7176,26.7252,-6.8244,0.9959
1780907074.7419808,0.1211,-0.9697,-0.0059,-5.0076,-16.5878,4.626,0.9773
0,0,0,0,0,0,0,0
0,0,0,0,0,0,0,0
1780907076.1036923,-0.3018,-0.9438,0.0427,-19.1374,-28.1145,2.145,0.9918
1780907076.302596,-0.136,-1.2102,-0.1099,-35.4275,-36.9695,-18.6336,1.2228
1780907076.5028045,-0.0967,-1.0469,-0.3347,-20.0382,-70.3893,-28.9771,1.1033
1780907076.702979,-0.0579,-0.884,-0.0474,-5.5191,-61.8931,-8.8702,0.8872
1780907076.9038537,-0.0347,-1.0315,0.001,12.9542,-67.3282,3.9084,1.0321
1780907077.104767,-0.1135,-0.9915,-0.1372,-3.2672,-48.7786,7.1374,1.0073
1780907077.3024244,-0.1904,-1.2327,-0.2744,-47.9084,11.6794,1.6183,1.2771
1780907077.5044081,-0.1641,-1.1536,-0.1216,1.3893,56.3282,7.084,1.1715
1780907077.7026572,-0.0042,-1.1091,-0.3328,-21.1221,39.4046,-7.0153,1.158
1780907077.9057634,0.1904,-1.0847,-0.2095,-44.3893,34.9237,-7.1527,1.121
1780907078.1054842,0.1404,-0.9072,-0.1042,-23.8397,38.916,2.145,0.9239
1780907078.3038669,-0.1536,-0.9758,0.0193,23.0076,-10.4656,21.5267,0.988
1780907078.5036292,0.0603,-0.9185,-0.324,8.5038,3.1603,11.2595,0.9758
1780907078.70294,-0.2874,-1.1758,-0.2827,-13.1527,-19.3206,1.9542,1.243
1780907078.906215,-0.3132,-1.0481,-0.1907,-0.2137,-22.6336,-10.7557,1.1104
1780907079.1021018,-0.0911,-1.002,-0.1707,4.542,-8.9847,-16.0763,1.0205
1780907079.303724,-0.0581,-1.0881,-0.5264,-40.145,-10.2214,-10.6947,1.2102
1780907079.5549748,0.1355,-0.9583,-0.5859,-34.8015,-10.626,-17.3053,1.1313
1780907079.7036915,-0.0173,-0.8054,-0.374,-37.916,-21.2748,-7.855,0.8882
1780907079.9027832,-0.0254,-0.8213,-0.5642,-35.2824,-43.0305,9.2137,0.9967
1780907080.102937,-0.0334,-0.7969,-0.6199,-50.4885,-5.5954,-10.1221,1.0101
1780907080.3022866,-0.1506,-0.6362,-0.7292,-20.1069,-14.3359,-0.9542,0.9794
1780907080.5039244,-0.1709,-0.7607,-0.8735,-14.374,-1.9695,1.3053,1.1709
1780907080.702392,-0.2092,-0.6636,-0.8213,7.0916,-5.1603,-0.9695,1.0764
1780907080.9035592,-0.1824,-0.6343,-0.7351,9.084,-7.3664,-6.0992,0.9879
1780907081.1106472,-0.1902,-0.7087,-0.7747,21.2443,1.2977,-6.9237,1.067
1780907081.3028743,-0.1211,-0.8857,-0.7854,9.2901,14.7481,-6.8015,1.19
0,0,0,0,0,0,0,0
0,0,0,0,0,0,0,0
1780907082.3694348,0.0649,-0.9607,-0.4458,26.6412,91.4657,10.9924,1.0611
1780907082.5686836,0.1545,-0.866,-0.5117,-5.3359,116.1221,12.5115,1.0177
1780907082.7680094,-0.054,-1.0789,-0.3013,-5.8473,96.5878,37.4656,1.1214
1780907082.9689915,0.2485,-1.0732,-0.355,-8.0916,103.4351,20.8473,1.1574
1780907083.1690762,-0.3352,-0.9358,-0.2964,-5.5573,110.3664,44.2061,1.0373
1780907083.369011,-0.1802,-1.0757,-0.219,-30.0,27.6718,0.1832,1.1124
1780907083.5684326,-0.1968,-1.0891,-0.2002,-2.4122,21.1985,-1.8626,1.1247
1780907083.7694972,0.147,-0.9922,-0.6858,12.7176,-9.542,-19.6489,1.215
1780907083.9690871,0.2664,-1.1077,-0.509,4.687,17.6565,6.6183,1.2478
1780907084.1690104,0.0898,-1.0261,-0.2788,12.1298,2.1832,6.4046,1.0671
1780907084.3686037,0.0244,-1.1106,-0.1787,15.0,-14.6718,11.5344,1.1251
1780907084.5688303,-0.0378,-0.782,-0.4248,38.5191,-54.9084,2.6031,0.8907
1780907084.7684383,0.144,-0.7312,-0.1748,26.9847,2.9389,5.0992,0.7655
1780907084.9703448,-0.1641,-1.02,-0.1719,14.9618,3.9542,-6.084,1.0473
1780907085.1719232,-0.2798,-1.1685,-0.4619,8.3053,-12.5191,-9.2824,1.2872
1780907085.368809,0.2122,-1.4963,-0.293,-55.9008,22.7481,-14.313,1.5394
1780907085.5688157,0.0461,-1.0898,-0.1035,-22.3511,18.3053,-1.8015,1.0957
1780907085.7688074,-0.144,-0.9912,-0.0862,6.1145,-24.4046,8.8779,1.0053
1780907085.968958,0.1189,-0.8303,-0.3574,6.4656,8.7023,-2.7939,0.9118
1780907086.1688843,-0.3442,-1.2017,-0.3354,-0.5573,29.626,-5.7405,1.2942
1780907086.3692052,-0.2065,-0.8616,-0.0972,5.4809,49.4885,17.7481,0.8913
1780907086.5687408,-0.0813,-0.9453,-0.1306,20.4122,66.9618,11.3359,0.9578
1780907086.7690713,-0.0522,-1.1746,-0.4307,-14.855,68.5725,-0.5115,1.2521
0,0,0,0,0,0,0,0
0,0,0,0,0,0,0,0
1780907088.2698362,0.0601,-0.9646,-0.1816,-12.2061,24.626,-2.6489,0.9834
1780907088.4685135,0.0764,-0.9473,-0.1917,-14.5496,41.0305,-1.4504,0.9695
1780907088.669009,0.0471,-0.9629,-0.2153,-12.2824,44.6412,8.9466,0.9878
1780907088.8690736,0.0291,-1.0884,-0.1782,1.5649,9.8702,10.6107,1.1033
1780907089.0687814,0.1467,-0.7654,-0.3748,34.3206,28.5878,4.0916,0.8647
1780907089.2709758,-0.3176,-1.1445,-0.3904,-10.8931,42.8244,6.1832,1.2503
1780907089.471929,-0.2224,-1.0281,-0.2651,-18.0382,49.1908,18.8168,1.0848
1780907089.668683,-0.1626,-1.0427,-0.2898,5.0458,35.1374,1.5496,1.0944
1780907089.8692117,0.1165,-0.6746,-0.4565,17.5802,22.5802,-3.1985,0.8228
1780907090.067979,0.4229,-0.9329,-0.5486,-0.4351,66.6565,-8.084,1.1619
1780907090.2707584,0.2334,-0.9883,-0.4868,-19.8321,78.458,-3.6718,1.1261
1780907090.4682648,0.2439,-0.9053,-0.387,0.8092,36.0687,16.7557,1.0143
1780907090.6682436,0.2,-0.9209,-0.3628,15.4885,49.8626,34.2977,1.0098
1780907090.8692217,-0.022,-0.8689,-0.1631,8.1145,77.0229,22.6794,0.8843
1780907091.0700743,-0.2483,-0.6523,-0.1504,8.2672,68.2137,35.687,0.714
1780907091.2691762,-0.1587,-0.9983,-0.2263,-10.0076,13.6183,-3.5802,1.0359
1780907091.4689012,-0.2456,-1.011,-0.2146,-5.3435,11.2748,-1.1069,1.0623
1780907091.6690078,-0.074,-1.1331,-0.2673,-15.3817,3.9542,-18.5725,1.1665
1780907091.8689113,0.1267,-0.8406,-0.3308,-33.4427,44.313,-11.2214,0.9122
1780907092.068941,0.0022,-0.8064,-0.1443,-21.7023,48.6641,-6.3817,0.8192
1780907092.2680173,-0.0852,-1.0015,-0.2146,15.2901,-21.5954,14.7252,1.0277
1780907092.4691725,0.1243,-0.4563,-0.3169,39.916,6.916,1.3435,0.5693
1780907092.668347,-0.1853,-1.0784,-0.4946,49.8015,33.2443,-12.1145,1.2008
1780907092.8684416,-0.1689,-1.2205,-0.3811,-5.4656,65.626,12.084,1.2897
1780907093.0690517,-0.3425,-0.8857,-0.2397,34.3893,92.4351,13.0763,0.9795
0,0,0,0,0,0,0,0
0,0,0,0,0,0,0,0
1780907095.6583812,0.0376,-1.1941,-0.3203,-4.7634,16.5038,-8.1145,1.2369
1780907095.858499,0.1145,-1.0513,-0.2905,-5.5878,26.3511,-9.5115,1.0967
1780907096.059374,0.0845,-0.9985,-0.1504,6.1221,40.6336,-0.2595,1.0133
1780907096.2587445,0.0798,-0.9009,0.0957,20.0382,15.9313,6.8244,0.9095
1780907096.4593856,0.0107,-1.3154,0.0208,-16.2595,-3.626,25.6641,1.3156
1780907096.6592486,-0.0754,-0.8828,-0.2461,-16.8473,31.0076,19.5878,0.9196
1780907096.8591344,-0.1003,-0.7117,-0.0837,-20.916,35.1832,15.7939,0.7236
1780907097.059101,-0.1226,-0.9321,-0.0505,-5.9924,32.2824,1.1679,0.9415
1780907097.258933,-0.2478,-1.2803,-0.3555,-17.6947,37.7328,-18.6718,1.3516
1780907097.463531,0.0273,-1.1375,-0.3318,-41.3664,44.9466,-35.0763,1.1852
1780907097.6588328,-0.0127,-0.8896,-0.1711,-16.0153,48.3664,-10.2748,0.906
1780907097.8586376,-0.0554,-0.9431,-0.0947,7.4656,-4.7634,21.687,0.9495
1780907098.058019,0.1252,-1.0918,-0.0579,6.4504,-33.374,12.6336,1.1005
1780907098.2581313,-0.0596,-0.7168,-0.2095,-9.9618,16.3359,5.4809,0.7491
1780907098.4599347,-0.0542,-0.8247,-0.2024,-8.7328,5.1527,-1.7634,0.8509
1780907098.6590054,-0.1978,-1.0325,-0.1814,0.4733,-0.2443,-11.2443,1.0668
1780907098.8589454,-0.2278,-1.0713,-0.251,1.4656,10.5878,-10.6489,1.1236
1780907099.0599337,-0.1526,-0.6904,-0.1401,-27.9924,-28.7634,-25.1298,0.7208
1780907099.2575839,-0.0669,-0.7307,-0.1702,-20.2824,-34.8779,-19.5344,0.7532
1780907099.457685,-0.0332,-0.9436,-0.3313,-3.2214,-94.7786,-0.626,1.0006
1780907099.6580775,-0.2148,-0.8328,-0.5208,-4.5573,-95.0687,37.6489,1.0054
1780907099.8571463,-0.1272,-0.7896,-0.4075,-16.5038,-118.687,-2.0,0.8976
1780907100.0579655,-0.3479,-0.8806,-0.3708,5.7176,-57.6412,-11.3206,1.0169
1780907100.2582643,-0.3999,-0.9448,-0.4053,-4.2977,-66.0305,-19.0153,1.1031
1780907100.4588978,-0.3547,-0.9077,-0.2009,-9.8702,-53.9618,-22.5878,0.9951
1780907100.6584752,-0.0061,-0.9343,-0.3467,16.7557,-34.8244,-38.8779,0.9966
1780907100.8598874,0.1292,-1.093,-0.3992,5.145,-49.4504,-22.6718,1.1708
1780907101.0581188,-0.1987,-1.0896,-0.2905,-10.0458,-43.3206,-14.1069,1.145
1780907101.2597823,-0.0701,-1.0142,-0.1807,-1.2061,-64.1221,-9.6565,1.0325
1780907101.4583519,-0.0151,-1.1846,-0.5852,-7.7557,-41.7786,2.0611,1.3213
0,0,0,0,0,0,0,0
0,0,0,0,0,0,0,0
1780907102.4935248,-0.188,-0.918,-0.2847,-11.4046,-41.2519,8.8931,0.9793
1780907102.6936393,-0.2253,-0.908,-0.2261,-4.6031,1.7176,-7.4885,0.9624
1780907102.8936331,-0.2798,-1.02,-0.3008,18.542,23.4351,-15.3664,1.0996
1780907103.0947356,-0.1299,-0.6235,-0.1777,46.7786,-21.7481,-3.542,0.6613
1780907103.295089,-0.0212,-1.0969,-0.3621,23.5267,-50.5115,-1.9313,1.1553
1780907103.4935763,0.0159,-1.0542,-0.2158,-10.3435,-31.4656,2.6489,1.0762
1780907103.6936653,0.0681,-0.98,-0.1492,3.7786,-54.8397,8.4885,0.9936
1780907103.8936756,-0.0056,-0.499,-0.3274,33.4046,-26.8931,8.4885,0.5969
1780907104.0935943,0.0083,-0.8633,-0.3352,48.4962,-0.5725,-15.313,0.9261
1780907104.2935863,-0.2268,-0.9763,-0.2473,17.3282,10.7481,-13.6336,1.0324
1780907104.4939873,-0.2144,-1.1643,-0.2378,55.6947,61.5115,11.0916,1.2075
1780907104.693561,-0.0085,-0.5776,-0.1355,41.6794,36.5802,2.3511,0.5934
1780907104.8930266,0.021,-0.7295,-0.1328,27.5038,12.8321,5.2137,0.7418
1780907105.0935304,0.0212,-0.9841,-0.1975,1.4733,-36.313,10.4885,1.004
1780907105.2935205,0.2024,-1.3367,-0.4565,-10.6947,-10.1679,20.5344,1.4269
1780907105.491953,-0.2258,-1.0669,-0.3608,-36.2519,44.8626,49.0153,1.1487
1780907105.691954,-0.1213,-0.8096,-0.2358,-13.5725,44.0305,16.5802,0.8519
1780907105.8915412,-0.0596,-1.0315,-0.2083,18.7939,58.9313,-5.5191,1.054
1780907106.0916939,-0.0144,-0.9722,-0.5112,19.4886,31.5344,-22.145,1.0985
1780907106.2919219,0.3965,-1.3599,-0.3748,-34.2595,5.4275,-28.916,1.4652
1780907106.4919786,0.1167,-1.0464,-0.219,-5.4656,-8.5878,1.2519,1.0754
1780907106.6918318,0.0178,-0.9634,-0.1909,7.9924,-44.3435,3.1069,0.9823
1780907106.8921285,0.04,-0.9233,-0.2446,10.8779,-40.3359,1.8397,0.956
1780907107.091759,0.071,-0.949,-0.2476,-7.229,9.9008,1.4962,0.9833
1780907107.2929013,0.094,-0.9995,-0.2715,-15.9542,43.9237,-3.0076,1.04
0,0,0,0,0,0,0,0
0,0,0,0,0,0,0,0
1780907108.3520455,0.1387,-0.9749,-0.2278,-15.1679,12.1756,15.6565,1.0107
1780907108.5481658,-0.0032,-0.8757,-0.2563,-20.4198,33.9313,13.9924,0.9125
1780907108.7463496,-0.1394,-1.0083,-0.3582,-17.4427,9.7481,1.2672,1.0791
1780907108.9471133,-0.2256,-0.9463,-0.179,-2.8779,15.0687,8.5267,0.9891
1780907109.1472478,-0.1597,-0.9758,-0.2688,17.7328,16.5191,6.6565,1.0247
1780907109.3468819,0.0078,-0.395,-0.2588,22.8168,8.0916,2.7786,0.4723
1780907109.5515594,0.0342,-0.5703,-0.2258,5.6336,15.9084,7.4046,0.6143
1780907109.7506232,0.0625,-0.9695,-0.2532,37.8168,-25.4198,-3.5115,1.0039
1780907109.9467356,-0.2683,-1.1753,-0.6948,-7.2977,21.0763,22.2977,1.3914
1780907110.1469042,0.0466,-0.4016,-0.3066,-8.8321,3.4809,-16.2824,0.5074
1780907110.3467717,-0.0078,-2.0,-0.2588,-45.4275,101.4809,86.0763,2.0167
1780907110.546738,-0.0034,-0.1614,-0.3669,8.7252,-8.5802,28.7405,0.4009
1780907110.7495558,-0.2588,-1.0117,-0.1609,46.084,-12.0916,7.1527,1.0566
1780907110.9468062,0.1938,-1.147,-0.1458,-48.1679,11.3053,-23.0687,1.1723
1780907111.1471467,-0.0007,-0.8926,-0.373,0.5802,2.8244,8.4198,0.9674
1780907111.3492153,-0.4045,-1.6714,-0.5129,22.7481,-25.8092,-14.7481,1.7945
1780907111.5503154,-0.0669,0.0518,0.0317,1.8855,-19.687,5.5267,0.0903
1780907111.7474785,0.5881,-2.0,0.0063,-193.8473,41.8855,-50.3206,2.0847
1780907111.950585,0.1392,-0.2554,-0.3979,38.5496,9.4351,5.4198,0.4929
1780907112.1474578,-0.2576,-1.8889,-0.561,-19.4198,32.4351,25.4809,1.9872
1780907112.3473837,0.0815,-1.502,-0.1772,-39.2366,-23.3969,-39.2519,1.5146
1780907112.5473154,-0.0425,-1.1157,-0.2683,-7.0534,-12.9924,0.8244,1.1483
1780907112.7466714,0.0059,-0.9575,-0.1326,-4.0,10.9084,6.3511,0.9667
0,0,0,0,0,0,0,0
0,0,0,0,0,0,0,0
1780907113.8265266,-0.0818,-1.033,-0.3437,-2.3511,2.8931,7.458,1.0917
1780907114.0269861,-0.1721,-0.9465,-0.4055,-6.5115,12.2672,4.8626,1.044
1780907114.2264886,-0.1348,-0.8884,-0.3562,15.8168,64.6031,13.2672,0.9666
1780907114.4259858,-0.1724,-0.8557,-0.4397,26.7252,82.7252,4.8626,0.9774
1780907114.6264787,0.259,-0.9839,-0.1497,5.8626,94.7099,8.5802,1.0284
1780907114.8269296,0.0491,-0.8086,-0.105,12.9237,64.6031,4.7328,0.8169
1780907115.0259717,0.155,-0.9441,-0.2578,-0.1527,79.5038,26.542,0.9909
1780907115.2816508,0.1487,-0.9888,-0.2075,-5.313,91.916,33.3053,1.0212
1780907115.426028,-0.1208,-0.8044,-0.2468,37.1756,75.3511,13.2901,0.8501
1780907115.6261883,-0.2852,-0.854,-0.3103,-12.0611,94.8702,31.1298,0.9523
1780907115.8271656,-0.1011,-0.9839,-0.1812,-12.3435,20.3664,1.0382,1.0055
1780907116.0266795,-0.2556,-1.0764,-0.1667,-17.5954,26.1679,22.1374,1.1188
1780907116.2267222,-0.0837,-0.9973,-0.407,15.0305,25.542,3.0229,1.0804
1780907116.4278352,0.0601,-1.3247,-0.3521,-42.0229,86.0687,10.2061,1.372
1780907116.6269345,0.0559,-1.2407,-0.2512,4.9237,8.0076,-7.374,1.2671
1780907116.8264465,-0.241,-1.0303,-0.4978,-2.5115,-77.7252,-19.7863,1.1693
1780907117.0272074,0.2468,-1.0164,-0.2869,-25.0687,-76.313,-26.2595,1.0845
1780907117.2264955,0.1267,-1.0759,-0.0762,-18.3206,8.8931,-6.0992,1.086
1780907117.4260223,0.2573,-0.3931,-0.5984,35.3053,137.2977,40.5802,0.7608
1780907117.6269433,-0.0376,-0.9912,-0.2625,36.916,57.2519,-14.1679,1.0261
1780907117.8304508,-0.2363,-0.875,-0.0977,18.1679,-43.5649,-9.4427,0.9116
1780907118.0766568,-0.0366,-0.4294,-0.4375,36.7252,-76.8321,12.1145,0.6141
1780907118.2297947,-0.0959,-0.7729,-0.1841,48.1908,-14.3817,27.7099,0.8003
1780907118.4308503,0.0562,-1.1558,-0.207,15.5649,62.5573,-3.8855,1.1755
1780907118.6284635,-0.0608,-0.4841,-0.3542,19.9237,84.7176,28.2977,0.603
1780907118.8271601,0.0249,-0.6875,-0.0415,3.1908,14.916,-9.5649,0.6892
1780907119.0268476,-0.2427,-1.0295,-0.0867,10.9618,-42.0,5.1603,1.0613
1780907119.2270215,-0.0732,-0.522,-0.4341,17.0763,-52.2137,2.2137,0.6828
1780907119.4279556,0.0977,-0.8926,-0.2295,35.374,-21.9237,13.626,0.9268
1780907119.625489,-0.0393,-1.2791,-0.2466,-0.3359,29.855,-26.2748,1.3032
1780907119.826116,-0.0081,-0.7141,-0.4697,27.1527,72.4198,26.229,0.8548
0,0,0,0,0,0,0,0
0,0,0,0,0,0,0,0
1780907120.829939,-0.2361,-1.1252,-0.1589,-35.8015,3.8244,17.2748,1.1607
1780907121.0285757,-0.1035,-1.0149,-0.0803,-9.0992,1.145,-4.7481,1.0233
1780907121.2287786,-0.3374,-0.9106,-0.0708,-1.313,-19.687,-22.4351,0.9737
1780907121.4283931,-0.2954,-1.2126,-0.2695,-13.2595,-100.6412,-45.8473,1.2769
1780907121.6285043,0.2322,-0.8928,-0.4631,-36.4198,-152.2443,-47.4198,1.0322
1780907121.8302102,0.3281,-0.9182,-0.2795,-16.5725,-69.687,0.9313,1.0144
1780907122.0284073,0.333,-1.0513,-0.2549,-8.3588,50.5878,30.0076,1.1318
1780907122.2779593,-0.1255,-0.584,-0.4524,54.4275,114.8244,45.8321,0.7493
1780907122.4275196,-0.283,-0.9629,-0.1672,2.145,65.2977,22.771,1.0174
1780907122.628006,-0.3728,-1.0176,-0.1411,-17.0611,14.687,-9.9084,1.0929
1780907122.8785796,0.1182,-1.2747,-0.6042,-36.7405,-34.3053,-36.6947,1.4156
1780907123.0785728,0.0605,-0.8945,-0.3755,-5.8015,-24.3588,-19.3664,0.972
1780907123.227937,0.1423,-0.9553,-0.2251,22.3359,32.3588,29.8244,0.9918
1780907123.4277885,0.0415,-0.8069,-0.4978,41.0,81.5725,30.9847,0.949
1780907123.6780076,-0.2974,-1.0952,-0.5691,-8.8244,158.3817,27.8779,1.2696
1780907123.9143388,-0.1355,-0.991,-0.4741,18.0687,156.9618,13.1527,1.1069
1780907124.0289538,-0.5024,-0.8054,-0.4136,15.8092,149.7557,33.7481,1.0355
1780907124.2288866,0.3806,-0.8674,-0.3245,9.5496,33.0763,-23.7557,1.0013
1780907124.4282148,0.1387,-0.9944,-0.2075,32.5725,32.6183,-3.9542,1.0252
1780907124.677928,0.2803,-0.8972,-0.2422,-11.4046,22.8702,7.8855,0.9707
1780907124.8279114,0.2747,-0.9329,-0.2478,-10.7863,22.4427,20.4122,1.0035
1780907125.027901,0.3047,-0.9583,-0.2349,9.7786,11.2366,23.7328,1.0326
1780907125.230621,0.0466,-0.8972,-0.5239,31.2901,62.2901,42.2824,1.04
1780907125.428135,-0.167,-0.7371,-0.2109,29.8931,71.9466,49.9542,0.7846
1780907125.6278706,-0.2429,-1.0513,-0.2883,20.6489,-14.1908,-9.374,1.1168
1780907125.8285398,0.0251,-1.3142,-0.2256,5.7099,67.4275,2.7328,1.3337
1780907126.0283403,-0.0349,-0.2036,-0.3242,11.1221,86.4657,9.5191,0.3844
1780907126.228409,0.0354,-0.6731,-0.0901,6.2824,32.0534,16.0,0.68
1780907126.427856,0.0417,-1.248,-0.3315,15.2595,-56.2595,-6.1832,1.292
1780907126.6284316,-0.3826,-0.5881,-0.3269,4.9237,-40.687,8.6489,0.774
1780907126.8280988,-0.1492,-0.7153,-0.2351,-1.9695,-28.3359,-8.2366,0.7676
1780907127.0278697,-0.1792,-1.1018,-0.2725,-12.458,52.2901,1.5496,1.1491
1780907127.228078,-0.1086,-1.5076,-0.9026,-26.9695,16.0763,-35.6794,1.7605
1780907127.4279904,0.0815,-1.0789,-0.4551,-30.9466,10.7328,-20.7252,1.1737
0,0,0,0,0,0,0,0
0,0,0,0,0,0,0,0
1780907128.2270105,-0.0085,-0.9412,-0.2278,-12.4427,-38.0382,-22.1527,0.9684
1780907128.4277835,0.178,-1.0715,-0.3098,-16.8855,-27.7252,-22.7023,1.1295
1780907128.626174,0.1558,-1.1062,-0.3303,-11.9008,-34.3282,-10.9389,1.1649
1780907128.82779,0.2563,-0.8867,-0.1641,-2.4504,-15.458,13.6031,0.9375
1780907129.026657,-0.1143,-0.751,-0.6384,32.0992,7.4046,38.0305,0.9923
1780907129.2277153,-0.2183,-0.7021,-0.2292,34.5954,-15.0382,14.5954,0.7702
1780907129.4281137,-0.1733,-1.135,-0.2175,-16.8473,-0.855,-9.7328,1.1686
1780907129.6318047,0.1123,-1.322,-0.8345,-9.7634,68.3588,-15.4198,1.5674
1780907129.828089,-0.0735,-1.2476,-0.4973,-69.0153,82.7176,8.4351,1.345
1780907130.0270207,-0.0322,-1.033,-0.2957,15.1527,11.8244,16.2443,1.0749
1780907130.2275236,-0.1968,-1.4622,-0.7668,-20.9542,-62.5267,-3.8855,1.6627
1780907130.4280334,-0.3044,-0.9114,-0.2754,-71.7252,-110.4962,-17.7405,0.9996
1780907130.6267283,-0.0337,-0.8501,-0.29,-4.9008,-59.8779,-25.6489,0.8988
1780907130.828149,-0.0662,-1.0879,-0.2458,1.3893,27.0382,-0.6718,1.1173
1780907131.0281954,-0.2073,-0.6138,-0.3687,6.7939,13.7481,15.5725,0.7454
1780907131.2312267,-0.1157,-0.7656,-0.186,-2.1985,-10.5878,-2.2595,0.7964
1780907131.4284241,-0.1147,-1.0217,-0.3354,-8.7405,-64.145,-15.7557,1.0815
1780907131.6711755,-0.1509,-1.2063,-0.8269,-33.8473,-96.4046,1.084,1.4703
1780907131.831327,-0.2998,-0.9658,-0.4014,-56.6794,-105.4351,-13.313,1.088
1780907132.0439265,-0.0784,-0.8687,-0.2424,-13.0992,-70.0916,-31.084,0.9052
1780907132.2265725,0.1052,-1.1709,-0.2844,11.7557,59.1374,9.3893,1.2095
1780907132.4298625,-0.1536,-0.5361,-0.3777,34.4733,60.0687,19.9466,0.6735
1780907132.6286297,-0.178,-0.7595,-0.2461,13.4733,35.4046,17.4427,0.818
1780907132.827887,-0.075,-1.0,-0.1851,14.7252,-21.1603,16.7023,1.0197
1780907133.0272636,-0.1228,-0.926,-0.3547,13.3053,-57.6565,2.145,0.9992
1780907133.2272213,-0.01,-0.8943,-0.3479,-10.9695,-67.4351,-16.7176,0.9596
1780907133.4268374,-0.0391,-0.8682,-0.2446,11.7863,-31.7939,-6.6565,0.9028
0,0,0,0,0,0,0,0
0,0,0,0,0,0,0,0
1780907134.6229587,-0.1125,-1.0847,-0.3386,3.229,-54.9542,-16.9008,1.1419
1780907134.8199186,0.1638,-1.0183,-0.4475,-26.4122,-70.4198,-27.9237,1.1243
1780907135.0206463,0.0415,-0.9558,-0.2734,-10.687,-37.0382,-6.5115,0.995
1780907135.2210948,0.0989,-1.0054,-0.2712,-11.0153,-33.9466,-12.9618,1.046
1780907135.4186656,0.1157,-1.0991,-0.5269,-27.4122,0.9695,11.4351,1.2244
1780907135.6197078,-0.3623,-1.3467,-0.5322,-43.8931,-30.4733,19.5725,1.4927
1780907135.8197749,-0.1238,-1.0613,-0.3059,-2.9695,-30.0611,-1.542,1.1114
1780907136.0197077,-0.1287,-1.3176,-0.3206,18.374,42.7405,19.313,1.3621
1780907136.2182295,-0.0256,-0.6199,-0.293,-21.1069,21.4198,-21.7634,0.6861
1780907136.419518,-0.042,-0.7766,-0.2202,-14.8702,24.084,0.5649,0.8083
1780907136.6183157,-0.1377,-1.1277,-0.2629,18.4427,-34.2519,9.2519,1.1661
1780907136.820451,-0.0122,-0.3706,-0.3982,20.9771,-54.5725,-6.4198,0.5441
1780907137.0195997,0.0383,-0.6494,-0.0444,6.9313,-29.374,-8.8092,0.6521
1780907137.2197812,-0.0701,-1.084,-0.3579,2.9542,19.3588,1.2901,1.1437
1780907137.4182675,0.0986,-0.4504,-0.5471,31.6794,75.3359,26.0305,0.7155
1780907137.619538,-0.0608,-0.9404,-0.2227,41.4504,51.2977,13.4656,0.9683
1780907137.8182504,-0.0737,-1.1646,-0.3638,6.6031,-11.8855,7.2519,1.2223
1780907138.0273983,-0.1418,-0.4226,-0.3918,-1.0687,-43.916,-9.8626,0.5935
1780907138.2198966,0.0222,-0.9421,-0.291,15.7405,-44.3206,-19.6489,0.9863
1780907138.422533,-0.0894,-1.0872,-0.3618,15.8244,3.0382,-6.4809,1.1493
1780907138.6240683,0.1055,-0.6267,-0.7251,7.374,56.374,3.687,0.9642
1780907138.8207219,0.032,-1.011,-0.5024,13.8321,55.4885,32.5267,1.1294
1780907139.0250657,0.0454,-0.9731,-0.4106,18.7023,7.4809,9.3435,1.0572
1780907139.221017,0.1077,-0.7119,-0.4675,8.3282,17.3511,29.4351,0.8585
1780907139.4252663,-0.208,-1.2759,-0.7336,5.8626,63.2748,13.8626,1.4864
1780907139.6196501,-0.1023,-1.1152,-0.4812,12.4351,81.0763,11.4656,1.2189
0,0,0,0,0,0,0,0
0,0,0,0,0,0,0,0
1780907141.2382321,0.0166,-0.7261,-0.4014,11.3206,24.4733,17.3588,0.8298
1780907141.4372594,-0.1875,-0.7341,-0.3315,0.7863,57.3206,38.2214,0.8271
1780907141.637744,0.009,-0.9509,-0.4219,-3.626,13.9618,-7.0382,1.0403
1780907141.837551,-0.1057,-0.9949,-0.3015,1.9466,48.7176,7.3435,1.0449
1780907142.0373278,-0.0935,-1.0908,-0.6885,2.084,20.0534,2.229,1.2933
1780907142.2368596,0.2419,-1.3469,-0.7197,-58.7023,29.4351,-27.8168,1.5462
1780907142.437126,-0.0654,-1.1208,-0.3923,6.9008,-25.7099,7.3969,1.1893
1780907142.6364918,-0.1101,-1.0315,-0.9465,-36.1908,-73.0916,-25.916,1.4043
1780907142.8374717,0.0354,-0.8677,-0.4353,-53.8015,-56.8092,-29.0916,0.9714
1780907143.0373375,-0.1558,-0.7065,-0.3948,-29.313,-62.3817,-62.2672,0.8242
1780907143.238065,0.1392,-0.4089,-0.6946,-18.8702,-39.9466,5.1527,0.8179
1780907143.4898632,0.092,-0.2371,-0.7903,-9.7023,-40.9084,-18.1603,0.8302
1780907143.6412027,-0.2649,-0.7354,-0.9319,-12.5191,-10.2519,9.4198,1.2163
1780907143.836995,-0.1863,-0.5952,-1.0085,-13.3206,-18.3817,3.6794,1.1858
1780907144.0380723,-0.2141,-0.5903,-0.7339,44.229,1.5725,1.916,0.9659
1780907144.237089,-0.2573,-0.7683,-0.8152,46.9084,-33.5954,-6.1527,1.1494
1780907144.4407773,-0.3425,-0.5576,-0.5818,35.0153,6.8321,16.2977,0.8756
1780907144.6373403,0.4045,-0.5439,-0.3491,29.3511,43.1985,-82.0458,0.7625
1780907144.8876796,-0.0679,-0.7793,0.2014,117.3969,44.1069,-9.9695,0.8078
1780907145.0879533,0.1785,-0.9397,-0.0081,86.8397,-4.4351,-14.5496,0.9565
1780907145.2375731,0.0842,-0.9224,0.1794,17.4122,-6.2595,-10.4656,0.9434
1780907145.4370797,0.0312,-0.8225,0.4211,27.4122,-16.6794,-4.4809,0.9246
1780907145.6379268,0.1311,-0.8982,0.1978,-2.1985,-8.7176,-1.2137,0.929
1780907145.8386092,0.0891,-0.9185,0.2542,-25.2214,-8.3435,6.9237,0.9571
1780907146.0374002,0.0635,-0.8892,0.1729,-39.1527,-10.5267,12.3206,0.908
1780907146.2379286,0.0198,-0.9751,-0.03,-34.1603,4.8702,1.8931,0.9758
1780907146.4400887,0.0149,-0.9895,-0.0671,-28.0687,5.8015,0.4046,0.9919
1780907146.6375742,0.0444,-0.9924,-0.1387,-7.5573,-3.3588,-3.542,1.0031
1780907146.8384867,0.0444,-0.9883,-0.1487,-1.6336,-0.8855,-1.5649,1.0004
1780907147.0381546,0.0454,-0.9775,-0.1323,-2.8779,-0.2137,-1.0687,0.9875
1780907147.2439609,0.05,-0.9817,-0.1184,-1.084,-0.9618,0.0992,0.9901
1780907147.4371173,0.0225,-1.0186,-0.1848,-7.3817,-1.542,6.2061,1.0354
0,0,0,0,0,0,0,0
0,0,0,0,0,0,0,0
1780907148.5799272,-0.0293,-0.9753,-0.1348,-22.4504,47.4198,32.9313,0.985
1780907148.7773995,-0.0657,-0.916,-0.0935,11.7023,56.8168,45.6107,0.9231
1780907148.9775865,-0.1985,-0.9106,-0.1907,-11.7557,21.4504,6.5344,0.9513
1780907149.1767554,-0.1521,-0.9143,-0.1553,-3.6031,73.1374,2.6947,0.9398
1780907149.429604,-0.313,-0.9202,-0.2886,31.2595,99.5802,2.4885,1.0139
1780907149.5808618,-0.0718,-0.9207,-0.4233,11.374,59.2061,-18.5267,1.0159
1780907149.7774918,0.0544,-1.0078,-0.3528,-40.542,23.9847,-32.0229,1.0692
1780907150.027484,0.3862,-0.8877,-0.2725,-13.6336,15.4275,-34.4351,1.0057
1780907150.1776323,0.1934,-0.8918,-0.3186,-3.916,26.7481,31.9924,0.9666
1780907150.377376,0.0962,-0.9082,-0.3484,2.8473,-16.8702,6.2977,0.9775
1780907150.5771549,0.1409,-0.9827,-0.2219,23.4656,-21.1527,6.0992,1.0172
1780907150.7767668,0.0134,-0.9666,-0.1504,13.626,-17.1527,9.7328,0.9783
1780907150.9771225,0.1433,-0.9866,-0.1357,48.2214,-6.7328,-2.3664,1.0061
1780907151.177652,0.1416,-0.9639,0.011,3.7634,-5.4427,0.0916,0.9743
1780907151.3776867,0.1113,-0.8923,-0.0149,-53.3817,-0.7557,4.1832,0.8994
1780907151.577661,0.0901,-0.9956,-0.3804,-71.855,4.3817,7.4351,1.0696
1780907151.7774591,-0.0566,-0.8801,-0.4016,-34.7557,-11.9695,9.0229,0.9691
1780907151.9773023,0.0125,-0.8079,-0.6538,-27.7252,-9.2824,6.1908,1.0394
1780907152.1777673,-0.0933,-0.8606,-0.9878,-10.2748,-1.7481,-3.9466,1.3134
1780907152.3767128,-0.0093,-0.7856,-0.6543,42.5878,4.6412,-3.5725,1.0225
1780907152.5795238,-0.002,-0.8765,-0.5139,49.7939,23.5496,-10.9237,1.016
1780907152.7770212,-0.0176,-0.8992,-0.2844,52.7328,-0.4275,2.0687,0.9432
1780907152.9772487,0.0227,-0.8936,0.0586,39.6718,0.2672,5.0305,0.8958
1780907153.197628,0.02,-0.9106,-0.0273,19.916,-21.0992,5.0611,0.9113
1780907153.3772182,0.0984,-0.9775,-0.1035,-17.5038,-41.6794,-6.1908,0.9879
1780907153.5768964,0.2327,-0.9431,-0.0232,-8.8015,-18.6336,-17.8626,0.9717
1780907153.778149,0.1011,-0.9753,-0.239,-21.8015,43.2061,2.1374,1.0093
1780907153.9769335,0.0437,-0.9536,-0.2749,-26.1298,23.9084,8.9008,0.9934
0,0,0,0,0,0,0,0
0,0,0,0,0,0,0,0
1780907155.1771522,0.0554,-0.9673,-0.3867,-3.2443,2.4504,0.0687,1.0432
1780907155.373639,0.0759,-0.9888,-0.3401,15.9466,0.4046,-2.2061,1.0484
1780907155.573972,0.0588,-0.9812,-0.1868,33.4275,-2.2214,-3.1985,1.0005
1780907155.7743835,0.0203,-0.9475,-0.0315,16.7786,-15.8321,4.6794,0.9482
1780907155.9849522,0.033,-1.009,-0.0732,-22.855,-40.2061,0.2672,1.0122
1780907156.174946,0.0437,-0.9578,-0.354,-28.0382,-49.2366,1.4809,1.022
1780907156.3741968,0.1025,-0.8284,-0.125,8.7328,20.5649,-21.4046,0.844
1780907156.5739748,0.2471,-0.5937,-0.4089,-49.7939,3.3359,-4.8397,0.7621
1780907156.7738006,0.2415,-0.908,-0.8291,-65.374,-10.855,20.3817,1.253
1780907156.9746616,-0.0579,-0.7083,-1.2412,-100.7939,-22.2061,8.5573,1.4302
1780907157.1739712,-0.0728,-0.5437,-0.8337,-43.8092,-5.1908,19.5344,0.998
1780907157.3740795,-0.051,-0.5796,-1.1423,6.9237,7.0763,-4.1374,1.282
1780907157.5744064,0.0286,-0.4331,-0.7856,59.6107,11.4504,-13.542,0.8976
1780907157.7764823,-0.0837,-0.5833,-0.6458,52.4351,18.771,-5.9924,0.8742
1780907157.9761033,0.0242,-0.698,-0.5059,92.2137,5.0611,-8.7634,0.8624
1780907158.1744037,0.0186,-0.9709,-0.0928,4.1679,11.8321,14.0382,0.9755
1780907158.3740697,-0.0334,-0.79,-0.1182,29.2061,32.5573,7.7099,0.7995
1780907158.5739663,0.1721,-1.0371,-0.7332,-26.9542,10.1603,-26.6107,1.2817
1780907158.7762978,0.1191,-1.3662,-0.5527,-43.0687,51.3053,33.3359,1.4786
1780907158.9742095,0.0571,-1.178,-0.3687,-8.8168,6.3664,10.3588,1.2356
1780907159.1743572,0.1057,-1.2507,-0.3823,-8.4885,-22.7023,10.4275,1.3121
1780907159.3746638,-0.0618,-0.7493,-0.4233,-17.1374,-5.6947,12.7176,0.8628
1780907159.5740414,0.074,-0.6748,-0.2366,-3.5267,5.2137,18.5496,0.7189
1780907159.7738779,0.1067,-1.0059,-0.3367,2.5725,29.9542,-6.3664,1.0661
1780907159.9748135,-0.05,-1.1406,-0.6267,-22.6718,59.2519,-2.8397,1.3024
1780907160.1740754,0.1047,-1.093,-0.4158,-49.6718,34.2595,-25.1679,1.1741
1780907160.3756819,0.0671,-0.9966,-0.3159,-16.4504,9.5802,-4.626,1.0476
1780907160.5739188,0.0286,-1.0159,-0.4211,10.6031,-41.4351,3.5725,1.1001
1780907160.7743075,0.1506,-0.8716,-0.3325,-1.8244,-32.4122,-26.9695,0.9449
0,0,0,0,0,0,0,0
0,0,0,0,0,0,0,0
1780907161.8284113,-0.0715,-0.9634,-0.4141,13.8092,1.7634,-1.4809,1.051
1780907162.0288892,0.064,-0.8914,-0.3726,-12.2672,-6.7405,-8.0687,0.9682
1780907162.227614,0.2212,-0.9663,-0.3157,-20.4733,2.4275,-5.0305,1.0403
1780907162.427804,0.0569,-0.7842,-0.0818,8.9389,11.7939,13.687,0.7905
1780907162.6274445,0.21,-0.7917,-0.4067,-5.7252,94.0382,44.0916,0.9145
1780907162.8280137,0.2131,-0.8169,-0.6885,0.5649,149.7863,49.0916,1.0894
1780907163.0281072,-0.1995,-1.0342,-0.3567,5.0458,174.0534,53.9618,1.112
1780907163.2287529,0.0925,-0.8799,-0.4255,-20.4886,152.7939,25.0229,0.9818
1780907163.4267476,-0.4182,-1.0034,-0.3083,-4.0687,76.1221,28.0534,1.13
1780907163.6277366,-0.082,-0.9734,-0.3115,-7.4046,40.2061,13.0,1.0253
1780907163.8273861,-0.0708,-1.0378,-0.2908,-5.7099,41.1298,16.2443,1.0801
1780907164.0288982,0.0247,-1.1401,-0.8003,-12.0305,-1.2595,-15.8321,1.3932
1780907164.2287238,-0.1169,-1.2549,-0.5337,5.687,20.9389,21.9008,1.3687
1780907164.4287083,0.0466,-1.2283,-0.3994,4.3969,-18.3588,-7.5267,1.2924
1780907164.6287105,-0.0193,-1.1902,-0.4912,-26.5267,-27.4886,-9.4809,1.2877
1780907164.8276193,-0.208,-1.1616,-0.3469,-72.8473,-40.0763,-28.7634,1.23
1780907165.027579,-0.0696,-0.9011,-0.21,19.7557,-20.0153,-5.3664,0.9279
1780907165.227963,0.0015,-1.1477,-0.3843,17.4962,44.7099,18.2824,1.2103
1780907165.4316685,0.0066,-0.4553,-0.4326,7.3893,53.2977,26.5649,0.6281
1780907165.628739,-0.0723,-0.6326,-0.1782,-15.0534,16.2901,-4.7863,0.6612
1780907165.8413012,-0.0403,-1.0244,-0.3259,7.0153,-42.8855,-4.1221,1.0758
1780907166.0375922,0.074,-0.7583,-0.6763,-12.916,-60.4427,-4.9542,1.0187
1780907166.2293053,-0.1084,-1.5803,-0.8396,-9.6183,-46.7405,-16.1679,1.7928
1780907166.4387195,-0.085,-1.0754,-0.5022,-3.0,23.145,0.3817,1.19
1780907166.6294646,0.0359,-0.7722,-0.406,11.1679,61.1985,8.5115,0.8732
1780907166.8296824,-0.0112,-0.9023,-0.3579,0.229,11.2748,-7.9771,0.9708
1780907167.0281074,0.5491,-0.6604,-1.2202,-9.5954,4.4504,11.9924,1.4922
0,0,0,0,0,0,0,0
0,0,0,0,0,0,0,0
1780907168.1856916,0.123,-0.9229,-0.4185,-9.0,-5.6183,-3.2137,1.0207
1780907168.388791,0.1213,-0.9434,-0.3972,-4.7939,-18.5649,1.6718,1.0307
1780907168.5962007,0.1477,-1.0684,-0.5032,7.4198,-20.4351,2.5954,1.1901
1780907168.836803,-0.0371,-0.6523,-0.5024,11.2901,-16.4656,1.0763,0.8242
1780907168.9913259,0.0725,-0.7876,-0.3755,-1.0687,1.8779,-12.6565,0.8755
1780907169.1859753,-0.1069,-1.1145,-0.262,12.9771,-3.3817,-16.1908,1.1499
1780907169.3854337,-0.0647,-1.1248,-0.4724,-43.7481,22.7405,-5.8015,1.2217
1780907169.586389,0.198,-0.906,-0.4241,-15.4122,10.9695,19.7023,1.0197
1780907169.7859945,-0.0229,-0.8794,-0.1558,-5.3435,1.7023,15.687,0.8934
1780907169.9848392,-0.0669,-0.9668,-0.3254,27.4733,-40.2443,-6.0611,1.0223
1780907170.1867077,0.0896,-0.552,-0.575,10.7863,-31.4427,-25.4351,0.8021
1780907170.3850634,-0.2617,-1.0427,-0.5544,-2.7939,-38.5191,2.2214,1.2096
1780907170.6366525,-0.1035,-1.0432,-0.5813,5.6336,-0.2061,11.9466,1.1987
1780907170.7857046,-0.1855,-0.9978,-0.4514,-8.4351,35.6565,9.5191,1.1108
1780907170.985509,-0.1482,-0.9373,-0.3499,-2.2824,29.8931,-7.6718,1.0113
1780907171.185187,0.0334,-0.8555,-0.3889,-5.855,43.3511,11.0611,0.9403
1780907171.391732,0.043,-0.9128,-0.3875,0.8321,29.6565,-2.5878,0.9926
1780907171.5861628,0.0398,-0.9646,-0.4253,4.0,6.7939,-5.6336,1.0549
0,0,0,0,0,0,0,0
0,0,0,0,0,0,0,0
1780907172.915343,0.0903,-1.0667,-0.4543,8.626,40.6412,39.6794,1.1629
1780907173.115053,0.071,-1.1375,-0.324,-11.1145,72.0076,22.0382,1.1848
1780907173.3160133,-0.2139,-0.9226,-0.3225,-11.5802,45.3511,16.8244,1.0005
1780907173.5140765,0.0388,-0.9683,-0.3391,-3.9466,79.2443,25.9847,1.0267
1780907173.7140405,-0.2065,-1.0786,-0.3523,17.8015,74.8626,7.3893,1.1533
1780907173.915533,0.0383,-1.0811,-0.8223,-35.7023,33.6718,-24.4733,1.3588
1780907174.1140075,0.0713,-1.3884,-0.6631,-23.145,43.6031,34.0611,1.5403
1780907174.314506,0.0488,-1.1235,-0.5227,-11.9466,31.1374,25.7863,1.2401
1780907174.5139625,0.0847,-0.8887,-0.2041,38.0229,-18.3435,-0.2672,0.9157
1780907174.7139974,-0.0085,-0.5095,-0.4023,34.8779,-12.3435,-11.9618,0.6493
1780907174.913465,0.1475,-0.7852,-0.2185,1.8473,11.8855,16.3511,0.8282
1780907175.114252,0.0713,-1.0093,-0.2266,14.8244,13.9237,-0.3893,1.0368
1780907175.3145587,0.0244,-1.083,-0.7129,-54.6183,31.8092,-22.1603,1.2968
1780907175.5149136,-0.0742,-1.2407,-0.429,-14.3511,57.0,47.5878,1.3149
1780907175.7144191,0.083,-1.0613,-0.3611,8.5954,11.1985,5.5649,1.1241
1780907175.9143033,0.1309,-1.0693,-0.3108,-9.2595,-30.687,-20.0687,1.1212
1780907176.1144187,-0.1436,-0.7205,-0.2412,-2.4504,-47.5725,-0.3664,0.7732
1780907176.3151941,0.0969,-0.8196,-0.3357,0.9237,-11.8931,24.5191,0.891
1780907176.5155957,0.1072,-1.0708,-0.2959,22.4046,21.1527,15.6565,1.1161
1780907176.7156165,0.1084,-0.7036,-0.6357,2.8168,38.7023,13.9695,0.9545
1780907176.9171462,0.1345,-0.8511,-0.4607,15.9237,21.2137,1.4962,0.9771
1780907177.1137981,0.0215,-1.012,-0.408,9.8626,0.6183,7.8855,1.0913
1780907177.3148062,-0.0818,-1.1538,-0.3113,-10.2977,-37.2595,-16.5114,1.1979
1780907177.5150023,0.0063,-0.6741,-0.4731,1.8244,-33.9389,-0.8244,0.8236
1780907177.7143607,0.072,-0.7043,-0.4265,-0.4198,8.1221,16.4351,0.8266
1780907177.91439,0.1216,-1.0193,-0.4753,-8.7786,21.5725,-6.1908,1.1312
0,0,0,0,0,0,0,0
0,0,0,0,0,0,0,0
1780907179.2896705,-0.0393,-0.7791,-0.2771,-6.6641,35.1679,16.9924,0.8278
1780907179.4879773,0.1189,-0.9785,-0.4353,27.9237,9.4122,2.6412,1.0776
1780907179.6896033,0.0049,-0.9028,-0.5474,26.1985,34.8321,19.6641,1.0558
1780907179.89052,-0.1221,-0.9639,-0.5552,15.9008,67.9008,40.458,1.119
1780907180.0881176,0.0073,-0.7651,-0.4841,4.2748,74.1374,42.1527,0.9055
1780907180.288211,-0.0808,-0.8684,-0.4172,6.3969,34.7405,16.5573,0.9668
1780907180.4882164,0.0142,-1.0244,-0.4187,11.1298,38.1832,20.6489,1.1068
1780907180.6895785,0.0637,-0.5937,-0.7883,-4.5878,43.1527,-13.5038,0.989
1780907180.8886697,0.0527,-0.8193,-0.7837,-29.2748,4.8015,-21.3511,1.135
1780907181.0884984,-0.1917,-0.8816,-0.5581,-2.4122,-62.626,-15.1374,1.0609
1780907181.2883003,0.3655,-0.781,-0.7634,-28.0382,-90.8015,-32.2061,1.1517
1780907181.4881852,-0.5979,-0.7129,-0.6548,-96.2519,-63.8321,52.7939,1.1377
1780907181.6887162,-0.5164,-0.5078,-0.7036,-52.7557,-19.4962,59.7557,1.0097
1780907181.8883562,-0.7207,-0.2026,-0.6987,-45.4046,-39.0305,39.4198,1.0241
1780907182.0885227,-0.6992,-0.0837,-0.7117,-53.1756,-27.8015,9.9847,1.0012
1780907182.28852,-0.7197,-0.054,-0.6416,-47.6336,-10.2366,-22.9313,0.9657
1780907182.488273,-0.5999,-0.0498,-0.3701,14.4885,-42.0992,-101.0076,0.7066
1780907182.6881175,-0.6458,-0.5862,-0.5066,14.7023,-25.145,-113.5496,1.0086
1780907182.8876703,-0.7148,-0.8979,-0.4526,-1.5115,-11.3206,-120.4198,1.2338
1780907183.0879207,-0.3821,-0.6533,-0.1077,34.4351,12.8779,-84.3588,0.7645
1780907183.288182,0.1011,-1.0781,0.0515,69.4809,-10.5267,-55.1527,1.0841
1780907183.4885814,0.2915,-0.99,-0.1919,8.7405,-0.9084,-26.145,1.0497
0,0,0,0,0,0,0,0
0,0,0,0,0,0,0,0
1780907184.7397828,0.1526,-0.9634,-0.3203,8.2214,0.5573,8.3053,1.0266
1780907184.93989,0.1934,-0.9385,-0.2249,-13.6412,4.2824,6.6947,0.9842
1780907185.139766,0.2048,-0.937,-0.22,-23.5649,-6.7176,0.8626,0.984
1780907185.3398707,0.1077,-0.9585,-0.1709,-24.3359,-22.4886,11.6412,0.9795
1780907185.5399086,0.022,-0.968,-0.4124,-30.1145,-32.4962,24.5496,1.0524
1780907185.74404,0.0752,-0.8164,-0.7959,-40.8321,-25.542,25.0229,1.1426
1780907185.9396467,-0.197,-0.7727,-0.7009,-15.6489,-3.4046,12.2977,1.0617
1780907186.1406174,-0.2178,-0.8594,-0.8411,14.8473,11.9618,1.9466,1.222
1780907186.3413436,-0.199,-0.8491,-0.4697,28.4809,21.2214,-10.5267,0.9906
1780907186.5398927,-0.0898,-0.8401,-0.5237,47.1756,9.8244,-15.084,0.994
1780907186.7397633,0.0608,-0.9001,-0.353,4.8397,2.7176,-12.8168,0.9688
1780907186.9394507,0.0283,-0.9207,-0.2197,28.4656,3.2519,-19.4122,0.9469
1780907187.140901,0.1968,-0.8767,-0.1565,18.7176,9.7786,-4.7176,0.912
1780907187.3395205,0.175,-0.9043,-0.0515,17.9084,14.0992,-1.1298,0.9225
1780907187.5397587,0.0469,-1.0869,-0.2114,-34.7099,-8.9542,13.6565,1.1083
1780907187.7396448,-0.0449,-0.9197,0.0986,-17.9695,-0.374,5.1679,0.926
1780907187.9395688,0.1809,-1.0103,-0.4277,-6.8779,-16.1603,-4.8321,1.1119
1780907188.1398516,-0.0581,-1.0085,-0.4456,-5.7481,-34.4122,7.3053,1.1041
1780907188.3394876,-0.0234,-0.9363,-0.2173,4.5725,-67.1527,-12.1221,0.9614
1780907188.5398998,0.0403,-0.9795,-0.0771,14.0992,-36.9008,-18.7481,0.9834
1780907188.7388496,0.1399,-0.9951,-0.0637,-5.8397,0.0229,-21.084,1.0069
1780907188.939638,0.1973,-0.9497,-0.1228,-6.4885,43.3206,-5.687,0.9777
0,0,0,0,0,0,0,0
0,0,0,0,0,0,0,0
1780907190.1120813,0.1252,-1.0271,-0.4163,14.1145,-30.6794,-3.5267,1.1153
1780907190.314056,0.0693,-0.916,-0.1873,32.5115,-15.2595,17.2519,0.9375
1780907190.5115604,0.0981,-0.9646,-0.1401,6.2519,-12.2595,-7.3664,0.9797
1780907190.7118113,0.1453,-0.9868,0.041,21.5802,8.2519,-10.8092,0.9983
1780907190.9111347,0.1794,-0.9526,0.0259,25.3817,22.6183,-7.4046,0.9697
1780907191.1115487,0.1321,-0.9509,0.1172,15.3435,5.0611,-23.4733,0.9672
1780907191.3115263,0.1765,-0.8921,0.252,36.4656,20.7328,-16.8702,0.9436
1780907191.5118651,0.2673,-0.8289,0.333,54.1832,22.5649,-21.2061,0.9324
1780907191.7615104,0.2502,-0.7046,0.5225,64.5191,11.7023,-24.916,0.9122
1780907191.9610677,0.209,-0.4014,0.9558,78.8702,23.8779,-6.1985,1.0575
1780907192.1120079,0.0884,-0.3828,0.8765,38.3969,28.4046,-8.0916,0.9605
1780907192.3619666,0.1523,-0.0005,0.7881,47.2901,60.4046,1.542,0.8027
1780907192.5643322,-0.2219,0.1909,1.1196,-1.458,17.0763,20.7176,1.1573
1780907192.7118564,-0.0557,-0.0388,0.7683,-13.1374,-13.4504,-19.3282,0.7713
1780907192.9118202,0.0295,-0.1116,0.7737,-12.9618,2.1756,-8.8015,0.7822
1780907193.112132,-0.1802,-0.1143,1.0508,2.6183,-1.4351,20.2824,1.0722
1780907193.3120582,-0.27,0.0906,1.0759,9.2672,-0.1679,8.3969,1.113
1780907193.5140376,-0.0615,-0.1565,0.9375,-3.6718,3.4656,2.4351,0.9525
1780907193.7132602,-0.2383,-0.0886,0.8884,11.6794,25.0153,20.9084,0.9241
1780907193.9100273,-0.2273,-0.1926,0.8752,-8.5725,-18.8168,-5.8168,0.9246
1780907194.1123297,-0.0337,-0.073,0.8394,-23.4198,-19.9695,-9.8321,0.8432
1780907194.3115563,-0.0205,-0.1838,0.9395,-12.8244,-24.3435,-29.0305,0.9575
1780907194.512209,-0.0459,-0.0742,0.8604,-5.7023,-9.1756,-3.542,0.8648
1780907194.7147763,-0.1118,-0.1099,0.8933,-1.6718,6.2824,4.5038,0.907
1780907194.912334,-0.072,-0.1162,0.9424,0.3969,2.8321,2.6412,0.9522
0,0,0,0,0,0,0,0
0,0,0,0,0,0,0,0
1780907196.649416,-0.0876,-0.1143,0.925,9.4656,4.7557,8.7786,0.9362
1780907196.845089,-0.1035,-0.0974,0.9507,8.3664,9.0534,9.1985,0.9613
1780907197.0447617,-0.2197,-0.1396,0.8975,-11.4504,3.8473,8.8779,0.9345
1780907197.2445326,-0.1484,-0.1101,0.9248,-10.1145,6.5954,-2.1603,0.9431
1780907197.4483387,-0.1042,-0.0354,0.8811,7.0687,4.916,2.1527,0.888
1780907197.6449685,-0.1702,-0.1252,0.8689,-2.229,-0.0076,-2.4275,0.8942
1780907197.91538,-0.1763,-0.179,0.894,-4.8397,-12.4504,9.542,0.9287
1780907198.0451908,-0.1741,-0.0779,0.9358,-6.5115,-5.2519,-3.5267,0.955
1780907198.2448976,-0.092,-0.0583,0.9207,-3.2443,0.6565,3.5802,0.9271
1780907198.4447699,-0.1572,-0.1306,0.8979,-3.4198,-4.3893,1.6183,0.9209
1780907198.6452725,-0.1646,-0.0928,0.918,-4.7023,-1.1832,-2.2137,0.9372
1780907198.8450525,-0.1704,-0.1118,0.9233,1.5573,-0.9237,0.3282,0.9456
1780907199.04561,-0.074,-0.0676,0.8696,-17.916,-11.0076,-15.916,0.8754
1780907199.2493727,-0.1587,-0.041,0.9883,-5.3053,-24.7328,-13.313,1.0018
1780907199.4478295,0.0198,-0.2219,0.8501,-12.3969,3.9695,3.9466,0.8788
1780907199.6450536,0.041,-0.2749,0.7876,-38.7786,-12.2137,-12.1298,0.8352
1780907199.844864,0.0176,-0.3564,0.8403,-92.542,16.1374,-15.0992,0.913
1780907200.0446563,0.1228,-0.689,0.6826,-52.5573,-8.9695,9.7252,0.9776
1780907200.248419,0.0715,-0.8411,0.2598,-77.084,-24.0992,-45.7252,0.8832
1780907200.444678,0.0374,-0.8657,0.3464,-78.855,-21.2977,1.6718,0.9332
1780907200.6461253,0.1392,-0.8828,0.2615,-50.7405,-19.9695,-1.5115,0.9312
1780907200.8961139,0.1609,-0.9167,0.0349,-72.3969,-28.1221,-16.2672,0.9314
1780907201.0480578,0.2771,-1.0098,-0.325,-35.5878,-13.9313,3.6641,1.0964
1780907201.2458093,0.24,-0.9214,-0.5996,-49.145,-8.8244,9.2595,1.1252
1780907201.445045,0.1492,-0.8713,-0.4973,-22.8015,-9.1221,6.7557,1.0143
0,0,0,0,0,0,0,0
0,0,0,0,0,0,0,0
1780907203.0079954,0.1187,-0.9265,-0.2075,-2.7023,-26.7939,10.1908,0.9569
1780907203.207462,0.1765,-0.9436,-0.3071,9.4275,-28.5114,-9.542,1.0079
1780907203.4072354,0.1697,-1.0063,-0.271,7.5267,-21.4275,-15.7328,1.0559
1780907203.6083522,0.0647,-0.9568,-0.1787,3.2901,15.1832,-1.3664,0.9755
1780907203.807706,0.1033,-1.0017,-0.1482,9.4809,18.8626,-13.1527,1.0179
1780907204.0070784,0.2163,-0.9863,-0.1035,7.1832,28.3282,-18.6412,1.0151
1780907204.2073927,0.1689,-0.9658,0.009,-1.2748,69.4427,-17.9008,0.9805
1780907204.4081037,0.2837,-0.9697,-0.0806,-21.1374,94.2519,-11.1527,1.0136
1780907204.606727,0.2896,-0.9502,0.1626,-8.8855,95.313,2.5115,1.0066
1780907204.8072972,0.0525,-1.1563,0.1086,-32.6412,48.7634,-40.1756,1.1625
1780907205.007963,0.1372,-0.9729,0.0747,7.5725,24.687,13.0076,0.9854
1780907205.2077727,0.2288,-0.9724,-0.0239,24.6565,-35.5038,19.5038,0.9992
1780907205.4078138,0.2788,-0.9287,0.0251,0.6718,-57.6947,21.8473,0.97
1780907205.6075044,0.0513,-0.9832,0.1799,27.1756,-87.7328,21.5114,1.0008
1780907205.8073177,0.1514,-0.9268,0.1575,39.2748,-36.1756,30.771,0.9521
1780907206.00774,0.1372,-0.8308,0.4915,46.8168,-35.2137,29.3053,0.975
1780907206.2105155,0.041,-0.7588,0.5186,70.313,10.6412,27.0153,0.92
1780907206.461014,-0.0781,-0.5815,0.7329,82.458,4.916,18.313,0.9389
1780907206.6077025,-0.0457,-0.2673,0.7305,60.542,7.5115,30.9008,0.7792
1780907206.8079026,-0.0376,0.2173,1.0486,16.0458,8.0076,6.1603,1.0715
1780907207.007297,-0.333,-0.0894,1.0952,3.7023,-12.2366,10.229,1.1482
1780907207.2077866,-0.2107,-0.1133,0.9067,8.2748,-8.9084,9.687,0.9378
1780907207.4080386,-0.207,-0.1189,0.8875,25.0305,8.7786,-6.3664,0.919
1780907207.6078327,-0.1899,-0.0774,0.9148,-0.2672,2.2214,-0.5115,0.9375
1780907207.8072548,-0.2253,-0.1191,0.9932,2.5191,1.5802,0.9618,1.0254
1780907208.0073085,-0.2759,-0.0872,0.8999,2.2595,0.6641,0.2748,0.9453
1780907208.208032,-0.2515,-0.1318,0.916,-2.6489,-22.5038,4.542,0.959
1780907208.4078248,-0.1838,-0.0906,0.9045,2.458,7.2366,11.5267,0.9275
1780907208.6079018,-0.1919,-0.0469,0.9348,2.626,1.4122,2.4198,0.9555
1780907208.80753,-0.2,-0.0637,0.9312,-5.6107,-4.5038,-3.1374,0.9545
1780907209.0077496,-0.1851,-0.0566,0.9302,-1.7405,-0.626,-1.1832,0.9501
1780907209.2070863,-0.1687,-0.0693,0.9111,-1.687,0.6947,-0.2824,0.9292
1780907209.4081357,-0.1982,-0.0857,0.9124,-1.0153,1.2137,0.3969,0.9376
0,0,0,0,0,0,0,0
0,0,0,0,0,0,0,0
1780907210.8133934,-0.2161,-0.1113,0.896,-0.8626,-4.2061,-0.1832,0.9284
1780907211.012051,-0.1785,-0.1128,0.9065,-1.9847,0.5191,10.7023,0.9308
1780907211.2116885,-0.188,-0.0867,0.9077,-0.8168,-1.0534,-0.7405,0.931
1780907211.4114833,-0.1829,-0.0754,0.9104,-1.084,-0.2214,1.1069,0.9316
1780907211.6121304,-0.1797,-0.0876,0.9121,-1.0305,-0.5115,0.6565,0.9338
1780907211.811687,-0.1873,-0.0784,0.9321,-2.3969,-0.0916,1.9847,0.954
1780907212.0117595,-0.1953,-0.1055,0.9041,-7.1832,-0.5038,-5.2366,0.9309
1780907212.2113073,-0.2644,-0.0911,0.927,-7.6489,1.5496,-3.6718,0.9683
1780907212.4148262,-0.2043,-0.0349,0.9792,5.1374,-14.0916,14.6107,1.001
1780907212.6120033,-0.2036,-0.083,0.9988,-0.1527,-12.2901,-0.4885,1.0227
1780907212.8115485,-0.0813,-0.1052,0.9158,-6.9847,9.916,0.0305,0.9254
1780907213.01199,-0.1765,-0.1621,0.8657,7.8244,-0.6565,-3.7023,0.8983
1780907213.212212,-0.1206,-0.0679,0.9973,-22.6107,-13.6565,-20.2443,1.0069
1780907213.4126914,-0.0952,-0.1448,0.9353,-39.9313,-1.2977,-7.9084,0.9512
1780907213.6127388,-0.1646,-0.3455,0.8503,-75.916,-1.0382,-30.8931,0.9325
1780907213.8111093,-0.2588,-0.613,0.9731,-30.4351,-26.1832,11.5191,1.1789
1780907214.0112345,0.094,-0.7644,0.6084,-44.0076,-5.7481,-5.7099,0.9815
1780907214.2113616,-0.0811,-0.8979,0.4175,-42.0382,-15.0153,-9.229,0.9936
1780907214.4109814,0.0144,-0.9065,0.3303,-34.2748,-1.2595,0.4351,0.9649
1780907214.6113636,0.0381,-0.918,0.29,-51.7939,-7.8931,-8.4122,0.9635
1780907214.8112388,0.0525,-0.9753,0.0864,-51.5878,-6.8626,-13.9237,0.9806
1780907215.0131118,0.0979,-0.9888,-0.1301,-53.7023,-5.3588,-10.1832,1.0021
1780907215.2171402,0.1208,-0.9531,-0.302,-35.6412,-2.5267,-11.3435,1.0071
1780907215.4116924,0.1565,-0.9248,-0.3677,-22.8092,-6.9008,-4.9542,1.0074
1780907215.6120496,0.1953,-0.8987,-0.4775,-9.5496,-3.0916,-0.2977,1.0363
1780907215.8129797,0.1721,-0.9116,-0.4521,-4.1069,0.5267,7.313,1.032
1780907216.012504,0.1638,-0.9114,-0.4329,-1.4198,10.1069,10.7252,1.0222
1780907216.2120924,0.1777,-0.9363,-0.4292,10.6183,25.1298,16.0992,1.0452
1780907216.411709,0.0076,-0.8955,-0.4465,7.1221,38.0153,7.4198,1.0007
1780907216.6124556,0.1731,-0.9341,-0.3223,8.4122,5.3053,-4.2443,1.0032
1780907216.8124256,0.1169,-0.9412,-0.2305,4.2595,-18.0,-8.855,0.976
0,0,0,0,0,0,0,0
0,0,0,0,0,0,0,0
1780907217.6402993,0.3394,-0.7922,-0.2466,50.8931,-40.374,1.3053,0.8964
1780907217.8398347,0.3386,-0.8975,-0.199,28.7176,-23.0992,17.4962,0.9796
1780907218.0407884,0.1262,-0.9268,-0.1807,22.145,-19.8473,26.3588,0.9526
1780907218.289858,0.2317,-0.9795,-0.2253,-4.8168,-25.1069,-16.8702,1.0314
1780907218.4394438,0.1487,-0.9749,0.0295,19.229,3.0534,3.9313,0.9866
1780907218.6393776,0.1409,-1.0845,-0.1021,9.5344,-1.5496,2.5649,1.0983
1780907218.8381276,0.2048,-0.9797,-0.0491,23.0458,-8.8015,6.9237,1.0021
1780907219.0405405,0.2046,-0.9653,0.0244,35.5038,-29.4733,4.8702,0.9871
1780907219.239634,0.1548,-0.9543,0.1528,30.8015,-36.1298,-6.1527,0.9788
1780907219.4398885,0.137,-0.8997,0.2737,19.2595,7.855,-0.1527,0.9503
1780907219.6410556,0.1863,-0.9407,0.2056,-10.4962,24.9847,-8.8397,0.9807
1780907219.9139779,0.218,-0.9143,0.3115,-18.0153,8.9771,-8.7405,0.9902
1780907220.0419173,0.2124,-0.9746,0.1533,-31.3359,19.8779,-7.3511,1.0092
1780907220.2398808,0.1108,-1.012,0.0916,-16.9847,56.5802,-0.1298,1.0221
1780907220.4402761,0.1316,-0.9446,0.032,0.1985,82.3206,-5.1069,0.9542
1780907220.640932,0.0796,-0.9404,0.0325,27.916,76.6412,5.5344,0.9444
1780907220.8395593,-0.0095,-0.9802,0.2063,20.7328,12.5802,-15.7328,1.0017
1780907221.1607761,0.1716,-0.9307,0.272,37.4885,-2.2672,8.5649,0.9847
1780907221.2409327,0.1553,-0.6855,0.5542,100.4885,-10.2519,-3.1221,0.8951
1780907221.4406488,0.0693,-0.5151,0.8303,106.6412,9.6031,44.5802,0.9796
1780907221.6400082,-0.073,-0.3577,0.8257,53.7405,6.1679,12.3969,0.9028
1780907221.8405585,0.0156,-0.2478,1.0518,68.5649,-11.8397,18.7557,1.0807
1780907222.040498,-0.2058,-0.0933,0.9641,32.8702,1.1756,30.2672,0.9902
1780907222.2394998,0.0647,-0.0886,0.8535,1.9313,-21.0458,-15.5954,0.8605
1780907222.4393857,-0.1213,-0.0896,0.8135,-1.0992,-12.0458,-6.6947,0.8273
1780907222.6448615,0.0166,-0.1084,0.8699,-2.3817,6.8855,-0.8321,0.8768
1780907222.8400552,-0.1621,-0.0657,0.8916,-11.0611,1.3969,-5.9847,0.9086
1780907223.0393746,-0.0845,-0.1152,0.9065,-4.4504,2.1756,1.4046,0.9177
0,0,0,0,0,0,0,0
0,0,0,0,0,0,0,0
1780907224.4855225,-0.1504,-0.1357,0.9075,-0.2061,0.6565,3.3893,0.9298
1780907224.6833792,-0.2124,-0.1414,0.9373,-2.6565,8.6183,11.1985,0.9714
1780907224.8834078,-0.0852,-0.1694,0.8955,-1.6947,0.0458,13.7328,0.9154
1780907225.0829322,-0.1741,-0.0874,0.905,-0.8931,15.1527,13.2595,0.9258
1780907225.2826922,-0.2686,-0.0735,0.927,-6.8702,27.5344,2.1221,0.9679
1780907225.482938,-0.3503,-0.0784,0.8259,-1.0916,54.6183,20.8931,0.9006
1780907225.6827402,-0.6006,-0.0852,0.7178,12.1679,76.5954,13.2366,0.9398
1780907225.8833091,-0.752,0.0049,0.554,5.2214,60.1145,-1.2443,0.934
1780907226.0832715,-1.0059,0.1528,0.3552,18.5573,58.9771,35.6183,1.0776
1780907226.282453,-1.0298,0.0356,0.3437,-0.6183,27.9695,14.8397,1.0862
1780907226.4845233,-0.8811,0.0286,0.197,-4.3969,12.1985,-5.5573,0.9033
1780907226.686581,-0.9531,0.146,0.0984,25.4198,61.7557,17.1985,0.9692
1780907226.8831182,-1.0144,0.1079,-0.1594,-40.1679,49.2519,20.1756,1.0325
1780907227.0831804,-0.9536,0.1768,-0.2319,18.0229,8.7939,7.2672,0.9972
1780907227.290865,-0.9888,0.1943,-0.3286,-4.0382,22.8702,3.9313,1.0599
1780907227.4823658,-0.9478,0.1768,-0.4011,-10.145,14.8244,4.916,1.0442
1780907227.6825247,-1.0632,0.2151,-0.3921,-9.0611,-13.3817,0.7252,1.1535
1780907227.8826165,-1.0356,0.1672,-0.3101,3.2977,-33.9084,-4.3359,1.0939
1780907228.0831323,-0.9243,0.2175,-0.2056,-13.1603,-31.687,-25.8779,0.9716
1780907228.2841458,-1.0457,0.0674,-0.0007,27.1908,15.7481,19.7405,1.0478
1780907228.482673,-0.8879,0.1594,-0.1426,-5.9847,20.5725,-6.1603,0.9133
1780907228.6826954,-1.113,0.1479,-0.2737,3.7023,22.6412,1.6718,1.1557
1780907228.8827603,-0.9429,0.1433,-0.3562,1.4427,4.9847,-3.9313,1.018
1780907229.0830848,-0.9807,0.175,-0.2952,-13.6489,-7.7939,-10.0916,1.039
1780907229.282849,-0.929,0.1521,-0.2747,-11.4351,-19.9466,0.1756,0.9806
1780907229.4826276,-0.9788,0.1321,-0.2065,6.2214,-6.2595,5.2824,1.009
1780907229.6833863,-0.9822,0.0989,-0.2002,-3.6794,-4.2901,-6.2595,1.0072
1780907229.8825548,-0.9675,0.1362,-0.2288,0.916,6.4046,0.4733,1.0035
0,0,0,0,0,0,0,0
0,0,0,0,0,0,0,0
1780907230.844904,-0.9497,0.1311,-0.2563,-4.1832,2.3282,0.4275,0.9924
1780907231.0424495,-0.9766,0.1243,-0.3,1.4275,0.771,1.3893,1.0291
1780907231.2427578,-0.9924,0.1228,-0.2766,-1.5115,-8.9618,-3.5496,1.0376
1780907231.4430609,-1.0457,0.1143,-0.2461,0.2977,-29.0611,0.0,1.0803
1780907231.6423473,-0.991,0.0789,-0.1399,0.8092,-46.0687,-7.7863,1.0039
1780907231.8428187,-1.0518,0.0959,0.1072,-11.1527,-71.1298,-12.1145,1.0615
1780907232.042845,-0.9675,-0.0083,0.2815,-24.1832,-103.3817,-34.1603,1.0077
1780907232.2431648,-0.5977,-0.1443,0.563,-1.1756,-82.9008,-16.7023,0.8336
1780907232.4431355,-0.5806,-0.2405,0.7485,13.1985,-62.1908,-3.6718,0.9773
1780907232.6427464,-0.2358,-0.1584,0.9407,-24.9847,-78.4809,-28.8855,0.9826
1780907232.8426669,-0.0164,-0.1045,0.9612,18.1756,-27.4351,-16.2366,0.967
1780907233.0424135,0.1458,-0.292,0.8152,5.084,-50.1756,12.6489,0.8781
1780907233.2430692,0.0964,-0.2144,0.8574,28.0,21.7252,1.084,0.8891
1780907233.4446244,-0.1658,-0.1965,0.9766,1.0153,-24.2366,6.9618,1.0098
1780907233.643289,-0.0173,-0.1584,0.9058,-21.0687,-58.5878,1.6947,0.9197
1780907233.8466196,0.395,-0.0608,0.8672,-3.7023,-49.4198,2.2977,0.9549
1780907234.043005,0.6702,-0.2642,0.6067,-9.2748,-39.1069,7.8855,0.9418
1780907234.2426963,0.4001,-0.2505,0.6675,-16.9008,-42.0611,-12.9466,0.8176
1780907234.4430442,0.7383,-0.3245,0.4243,-22.6183,-76.2061,-3.0458,0.9113
1780907234.6432223,0.7112,-0.6599,0.2737,13.3588,-21.8855,21.7557,1.0081
1780907234.8431551,0.8105,-0.3535,0.3052,6.0153,-9.7863,17.8168,0.9355
1780907235.0430682,0.7988,-0.3594,0.3875,8.8168,16.7328,-19.7786,0.9578
1780907235.2433093,0.8359,-0.2583,0.4309,10.5496,32.0305,-6.8168,0.9753
1780907235.4429433,0.7539,-0.123,0.5398,-24.6718,19.7786,-6.1069,0.9354
1780907235.6431682,0.7534,-0.4192,0.4805,-29.855,-8.9542,8.8626,0.987
1780907235.914722,0.7615,-0.2502,0.499,-21.3359,-15.2137,1.6565,0.9442
1780907236.043932,0.7478,-0.2688,0.4951,3.374,0.6031,-0.3511,0.9363
1780907236.242981,0.7935,-0.2498,0.4434,-7.2595,-1.313,-0.9695,0.9426
1780907236.4434214,0.7739,-0.2979,0.4536,-6.0076,-1.7557,0.771,0.9452
1780907236.6427794,0.7795,-0.2725,0.4241,-26.4656,-7.687,4.9695,0.9283
1780907236.8440027,0.8452,-0.2754,0.4521,8.8092,29.542,3.4427,0.9973
1780907237.046588,0.7329,-0.3101,0.5459,9.2595,42.8092,5.9542,0.965
1780907237.24323,0.5007,-0.3376,0.6614,18.5725,55.6183,3.4046,0.8956
1780907237.4451025,0.2607,-0.137,0.9104,-0.3511,48.3053,-37.8626,0.9569
1780907237.6429827,-0.1624,-0.3003,0.9075,8.5573,30.0687,21.0992,0.9696
1780907237.843773,0.1548,-0.1538,0.9209,-9.4427,1.4962,-9.1527,0.9464
0,0,0,0,0,0,0,0
0,0,0,0,0,0,0,0
1780907239.3453143,0.1306,-0.9297,0.1465,-45.0382,-15.4351,-8.2366,0.9502
1780907239.5442996,0.3013,-0.9688,-0.3953,-36.7176,-2.458,-11.9542,1.0888
1780907239.7439995,-0.0315,-0.905,0.0469,-55.8855,3.9924,2.8855,0.9068
1780907239.9972782,0.0969,-0.9519,-0.5203,-68.4657,-30.2366,3.5115,1.0891
1780907240.1427019,0.0498,-0.9014,-0.7288,-48.5115,-29.2214,48.7557,1.1602
1780907240.3430114,-0.2766,-0.7498,-1.2742,-97.7939,-28.0229,18.3359,1.504
1780907240.543242,0.0132,-0.5786,-0.9919,11.7786,-6.3435,6.1679,1.1484
1780907240.7430377,0.1091,-0.6201,-0.959,51.771,18.3588,-2.5344,1.1472
1780907240.9449835,-0.0632,-0.5811,-0.4917,83.4427,15.4962,27.458,0.7638
1780907241.1433141,0.0227,-0.6182,-0.4895,48.8855,-6.3053,17.1985,0.7888
1780907241.342511,-0.1042,-0.8242,-0.364,-20.0458,-12.8855,-6.458,0.907
1780907241.5434024,-0.1653,-1.0229,-0.438,-2.5725,-47.4351,-41.4656,1.125
1780907241.743403,-0.1909,-1.033,-0.4172,-9.6183,-91.7481,-36.1069,1.1303
1780907241.9438324,0.1404,-1.0767,-0.7705,-20.084,-74.8931,-5.6107,1.3314
1780907242.1429121,0.1013,-0.8843,-0.4302,1.0305,-19.8931,29.9847,0.9886
1780907242.3434517,0.3132,-0.7793,-0.3889,5.8855,23.1374,28.2366,0.9256
1780907242.5426865,0.031,-1.0554,-0.623,-11.4351,15.5344,-17.2366,1.226
1780907242.7939653,-0.1936,-1.084,-0.6194,3.1985,45.6183,43.7405,1.2634
1780907242.944508,-0.1174,-0.9365,-0.3955,-26.8779,67.6107,18.7863,1.0234
1780907243.143288,-0.123,-0.9617,-0.5845,16.1374,128.626,61.626,1.1321
1780907243.3429732,0.2271,-0.6226,-0.6858,-27.374,105.4885,20.5267,0.9536
1780907243.5424821,0.0562,-0.9839,-0.7334,21.8321,75.3511,50.7863,1.2284
1780907243.743062,0.0454,-0.9126,-0.5435,-13.4885,35.6412,11.6031,1.0631
1780907243.9428706,0.0298,-0.7896,-0.6389,-14.145,25.1527,28.6947,1.0161
1780907244.1433,-0.3428,-1.1282,-0.2458,-52.9618,-47.7405,-26.8779,1.2045
1780907244.3511028,-0.2036,-0.9387,-0.175,-12.4351,-22.4733,-17.6718,0.9764
1780907244.5429626,-0.0356,-0.8372,-0.6663,-18.7481,11.9847,-47.3893,1.0705
1780907244.7433753,-0.1538,-0.7783,-0.5168,-28.3893,-7.7023,-27.3817,0.9469
1780907244.9429536,0.0098,-1.1248,-0.4705,-18.7786,-43.9313,-9.8931,1.2192
1780907245.1435034,0.1797,-0.7837,-0.3391,-3.4656,-82.2214,-25.6794,0.8726
1780907245.3424518,0.0195,-0.9492,-0.2322,51.1756,13.9542,34.2672,0.9774
1780907245.543488,0.1372,-0.9485,-0.3767,-15.2519,-3.5573,-20.1145,1.0297
1780907245.7432506,0.0703,-0.918,-0.2754,-7.4885,30.7405,12.1374,0.961
0,0,0,0,0,0,0,0
0,0,0,0,0,0,0,0
1780907247.4173422,-0.0769,-0.9756,-0.2883,2.0076,30.3588,4.9847,1.0202
1780907247.6175911,0.0439,-0.9373,-0.6086,-12.3435,21.0687,-29.084,1.1184
1780907247.816656,0.2986,-0.8257,-0.5649,-57.1145,27.626,-29.687,1.0441
1780907248.0179377,0.229,-0.7698,-0.2224,12.8473,33.4351,6.3282,0.8333
1780907248.2178333,0.1072,-0.8965,-0.1782,30.084,1.4046,23.4122,0.9203
1780907248.4181166,0.1042,-1.0505,-0.439,-15.8168,-24.9847,-14.6412,1.1433
1780907248.618178,-0.1807,-1.1611,-0.5884,-22.0153,7.0153,45.6183,1.3142
1780907248.8197415,-0.051,-0.8984,-0.2388,-20.2595,12.8321,18.0076,0.931
1780907249.0187013,-0.1228,-1.0884,-0.3916,9.8168,24.6336,13.9008,1.1632
1780907249.2182724,0.0,-0.5374,-0.3879,1.7176,7.1679,6.8321,0.6628
1780907249.4183884,0.0376,-0.8469,-0.4033,22.1756,-10.7481,4.5191,0.9388
1780907249.6183245,-0.0505,-1.1123,-0.1521,3.1679,-32.7634,-4.5496,1.1238
1780907249.8179677,0.1011,-1.1628,-0.3105,-12.2595,-21.3588,-29.2366,1.2078
1780907250.0180392,-0.0374,-0.8472,-0.1899,2.6489,10.2443,5.8626,0.869
1780907250.2178552,-0.0127,-0.7637,-0.2808,-0.6489,27.8702,-16.6947,0.8137
1780907250.418226,-0.062,-0.8933,-0.2583,11.6031,69.9084,8.7252,0.932
1780907250.6184285,-0.02,-0.949,-0.2234,-4.1221,24.4351,6.8244,0.9751
1780907250.8187943,-0.022,-1.1931,-0.2366,-2.5725,32.3359,-2.2519,1.2165
1780907251.0186298,0.3533,-1.0569,-0.2583,-2.2443,9.2824,-20.1145,1.1439
1780907251.2181995,0.2498,-0.9329,-0.145,-8.7786,-2.4733,-12.6794,0.9765
1780907251.4166565,0.2805,-0.9478,-0.2061,-1.0382,10.0534,-3.6718,1.0096
1780907251.617318,0.283,-0.9404,-0.158,-1.7863,0.374,-1.2672,0.9947
0,0,0,0,0,0,0,0
0,0,0,0,0,0,0,0
1780907252.810811,0.1931,-0.9612,-0.2434,-5.0382,35.7786,17.8626,1.0102
1780907253.007507,0.2107,-0.9783,-0.2217,-7.855,29.3053,30.3817,1.025
1780907253.211408,0.2161,-0.9304,-0.1448,1.1298,65.145,36.5496,0.9661
1780907253.4079027,-0.0525,-0.9358,-0.2593,-34.626,50.0992,35.8779,0.9725
1780907253.6082358,0.063,-0.9729,-0.4236,-31.2443,93.7328,35.9695,1.063
1780907253.8082955,-0.1973,-0.8618,-0.2217,5.8626,92.8321,18.0763,0.9115
1780907254.0086317,-0.1008,-1.0217,-0.1628,-1.0229,78.916,5.3969,1.0395
1780907254.2138035,-0.0688,-1.0896,-0.3147,-22.4046,87.0687,8.2977,1.1362
1780907254.409377,0.0549,-0.7708,-0.3347,31.8779,105.7939,13.1298,0.8421
1780907254.6080687,0.1631,-0.9009,-0.4202,-6.4962,90.3359,12.5115,1.0073
1780907254.8081026,0.1433,-0.9705,-0.1455,-15.7328,12.9695,7.2824,0.9917
1780907255.0083067,0.1338,-1.0032,-0.5122,-22.0687,-1.1221,8.8168,1.1343
1780907255.208309,-0.1997,-1.2024,-0.1404,-8.9771,-10.8931,-8.9237,1.2269
1780907255.4084177,-0.2004,-1.106,-0.1499,15.7939,-0.5954,11.8168,1.1339
1780907255.6083272,-0.1099,-1.1545,-0.0833,9.7328,20.916,-15.9237,1.1627
1780907255.808185,0.0732,-0.6396,-0.4478,22.1756,50.5496,14.771,0.7842
1780907256.0077033,-0.0422,-0.7866,0.0264,3.8702,40.7176,-15.855,0.7882
1780907256.2594895,0.021,-0.978,-0.1575,5.0992,12.2977,7.1069,0.9908
1780907256.4083893,0.2046,-1.0581,-0.4121,-47.1298,-21.8702,-1.7328,1.1538
1780907256.6085138,-0.178,-1.4268,-0.2949,13.855,57.9924,23.4886,1.4678
1780907256.8085997,-0.1475,-1.0085,-0.0637,-6.2443,58.9389,11.3817,1.0213
1780907257.0106032,-0.1653,-1.0317,-0.2583,15.9924,60.5344,16.8321,1.0763
1780907257.2080727,0.1013,-0.9028,-0.4031,27.9389,67.1069,11.3893,0.9939
1780907257.410841,0.1714,-1.0732,-0.1741,-5.4962,34.2366,-19.9924,1.1007
1780907257.61115,0.0422,-0.9448,-0.1006,11.3664,47.5496,11.2519,0.9511
1780907257.809,-0.189,-1.0237,-0.0442,7.1756,-0.7328,1.855,1.0419
0,0,0,0,0,0,0,0
0,0,0,0,0,0,0,0
1780907259.1385622,0.0342,-0.9246,-0.1072,9.3053,-12.5725,-0.2672,0.9314
1780907259.3388019,0.0178,-1.114,-0.3059,18.5878,-10.0534,15.2519,1.1554
1780907259.5369694,0.1321,-0.9426,-0.3042,11.4427,-24.5344,4.1221,0.9993
1780907259.7367625,-0.115,-0.9673,-0.5298,-0.7252,2.9084,26.8855,1.1088
1780907259.936833,-0.0859,-0.8894,-0.3462,-5.8015,3.4198,5.7863,0.9583
1780907260.1381156,0.0076,-0.9426,-0.2676,-17.6489,-9.3511,-23.9389,0.9799
1780907260.3373895,-0.2136,-1.1033,-0.4687,2.4962,43.4427,19.5649,1.2176
1780907260.5366328,0.0828,-1.0376,-0.3665,-52.5725,7.1985,-41.4504,1.1035
1780907260.7367995,0.0632,-0.8892,-0.1968,32.5573,37.5649,30.6107,0.9129
1780907260.9372692,-0.061,-0.989,-0.1384,14.9542,-18.4351,15.1603,1.0005
1780907261.1372585,-0.0168,-1.1167,-0.3037,-26.458,-52.4733,-5.4275,1.1574
1780907261.3393745,-0.2141,-0.8196,-0.304,4.9313,7.6794,41.2443,0.9
1780907261.5364256,-0.1643,-0.7585,-0.2305,19.9313,11.1603,17.2672,0.8096
1780907261.736835,-0.1987,-0.939,-0.2244,12.3282,6.8168,-9.9237,0.9856
1780907261.9396164,-0.1216,-0.9966,-0.1445,18.3435,24.3664,-12.4809,1.0143
1780907262.136647,-0.0691,-0.5061,-0.313,23.9695,24.9847,15.0076,0.5991
1780907262.3376408,0.1262,-1.0906,-0.5779,-16.0076,22.4122,7.6183,1.2407
1780907262.5371807,0.0771,-1.0085,-0.3047,-13.7099,22.0076,2.145,1.0564
1780907262.7375572,-0.0676,-0.9761,-0.332,-16.6947,-26.4962,-3.9466,1.0332
1780907262.9608731,0.0933,-0.7932,-0.4683,-9.4046,28.1985,19.6336,0.9258
0,0,0,0,0,0,0,0
0,0,0,0,0,0,0,0
1780907264.2984536,-0.0005,-0.9373,-0.354,3.6641,-5.0229,-0.687,1.0019
1780907264.500567,0.0442,-0.8857,-0.4407,-26.0153,23.9237,0.1832,0.9903
1780907264.6971986,-0.0049,-1.0313,-0.4104,0.7328,72.8168,27.9771,1.1099
1780907264.897522,0.082,-0.9705,-0.5676,16.1374,104.8244,45.7557,1.1273
1780907265.0970125,0.231,-0.9233,-0.5544,4.6565,95.458,43.0687,1.1015
1780907265.2969005,0.0732,-0.8655,-0.4055,1.4885,88.7099,47.916,0.9586
1780907265.5018651,-0.0193,-0.9185,-0.583,-10.2672,31.229,25.6641,1.088
1780907265.705001,-0.115,-0.9072,-0.5513,0.7557,82.8321,46.6489,1.0678
1780907265.9031823,-0.1499,-1.0496,-0.3186,-18.7405,45.3359,10.0153,1.107
1780907266.0973003,-0.3584,-1.0161,-0.2063,-15.0229,49.4351,9.1298,1.097
1780907266.2965498,-0.1077,-1.0125,-0.2036,-4.2519,12.1527,0.771,1.0383
1780907266.499841,0.1487,-0.9983,-0.3025,-30.1069,20.5878,-20.8702,1.0537
1780907266.697919,-0.1287,-0.8792,-0.0952,-18.4809,-4.4198,-14.1298,0.8936
1780907266.8968256,-0.0637,-0.9219,-0.1257,-23.1374,-44.7786,-3.6718,0.9326
1780907267.1015093,0.0388,-1.0579,-0.6619,-37.3206,2.3206,21.145,1.2485
1780907267.2967024,-0.1355,-1.0613,-0.5564,-44.8321,-33.3206,-24.8168,1.2059
1780907267.4966555,-0.1587,-0.9233,-0.2605,5.7786,-13.8855,-5.458,0.9724
1780907267.6975892,-0.0601,-1.0476,-0.2683,-5.916,23.4198,-0.2443,1.0831
1780907267.897563,-0.0686,-0.8333,-0.6204,26.1374,6.9008,31.6794,1.0411
1780907268.0978136,-0.0271,-0.9578,-0.6624,14.1603,-45.8473,7.7023,1.1648
1780907268.2975285,-0.0847,-1.0986,-0.3447,-3.0916,-80.1756,1.3588,1.1546
1780907268.4973464,0.1038,-1.0186,-0.2825,-17.3893,-96.855,-42.8092,1.0621
1780907268.6971657,-0.1357,-0.5889,-0.1665,4.3664,-95.1603,-17.6336,0.6268
0,0,0,0,0,0,0,0
0,0,0,0,0,0,0,0
1780907270.2774155,0.0723,-0.9565,-0.2019,2.2824,26.2366,11.7557,0.9803
1780907270.4782362,-0.0649,-0.9106,-0.1892,7.6336,23.5878,2.8092,0.9324
1780907270.6772285,-0.0061,-0.9006,-0.2798,0.1374,26.4427,2.5038,0.9431
1780907270.8780415,0.0366,-0.9587,-0.2273,-10.6794,26.2519,12.2061,0.986
1780907271.0777745,0.2585,-0.9084,-0.145,-8.8244,-3.4275,-5.1145,0.9556
1780907271.2783225,0.0874,-0.9812,-0.4685,-15.542,61.9008,12.1145,1.0908
1780907271.4782543,0.0393,-0.9451,-0.3445,0.0534,59.8702,2.8473,1.0067
1780907271.6777163,-0.21,-0.9377,-0.4663,-17.3435,43.8473,15.1832,1.0681
1780907271.8782558,-0.0291,-0.9373,-0.2993,0.8473,2.1679,-8.8092,0.9843
1780907272.077852,-0.1335,-0.9373,-0.3167,-13.4427,7.9313,4.6641,0.9983
1780907272.2783563,-0.0354,-1.0056,-0.1797,16.9695,44.8473,10.7023,1.0222
1780907272.4783592,-0.1624,-0.5732,-0.1108,24.2824,-12.4275,-19.3817,0.606
1780907272.6922343,0.207,-0.8718,-0.6614,5.313,18.2443,21.1603,1.1137
1780907272.877606,0.0647,-1.0437,-0.3347,8.9008,-27.5725,2.458,1.098
1780907273.078211,0.1301,-1.0981,-0.4023,2.5954,-37.6718,-17.8855,1.1767
1780907273.2812274,-0.313,-0.7646,-0.165,-1.1908,-15.7634,23.0992,0.8425
1780907273.4787436,-0.2461,-0.814,-0.2217,-3.4351,-27.5191,-0.2061,0.8788
1780907273.678084,-0.0852,-0.9709,-0.2532,11.8626,-17.3893,-27.0,1.007
1780907273.8782375,-0.2158,-1.0884,-0.6743,27.9466,-15.6031,32.8779,1.2984
1780907274.080064,0.1799,-1.354,-0.7571,-44.7328,-87.1985,-36.9389,1.5617
1780907274.2779772,0.075,-0.9492,-0.3684,-39.3359,-120.5878,-32.4504,1.021
1780907274.477789,0.1582,-0.9231,-0.4417,5.0687,-124.7557,-26.9313,1.0355
1780907274.6775954,-0.1946,-0.8657,-0.3652,-12.1145,-104.4809,-26.6947,0.9595
1780907274.877975,-0.0032,-1.0674,-0.2839,-17.3588,-81.4122,-38.0076,1.1045
1780907275.0780897,-0.1084,-0.9797,-0.2827,-13.916,-6.0458,1.2061,1.0255
1780907275.2782762,-0.0273,-0.9492,-0.2593,-5.0382,3.626,2.5115,0.9844
0,0,0,0,0,0,0,0
0,0,0,0,0,0,0,0
1780907276.5197382,-0.0764,-1.0842,-0.4741,-12.7863,-80.5954,-47.0,1.1858
1780907276.7186525,-0.0015,-0.8831,-0.4514,-32.3969,-85.4962,-17.3664,0.9917
1780907276.919562,0.2683,-0.8491,-0.2451,4.9542,-70.6107,-26.9466,0.9236
1780907277.1194434,0.0024,-0.9856,-0.2646,12.5954,-43.8092,-0.9695,1.0205
1780907277.3182285,0.2595,-0.9866,-0.2217,-5.0305,-18.9466,-2.3817,1.0439
1780907277.518527,0.0901,-1.0291,-0.3469,14.2977,33.7405,11.9771,1.0897
1780907277.7182927,-0.2712,-1.1643,-0.4082,-31.8855,-5.4809,5.5573,1.2633
1780907277.9188147,-0.22,-0.8591,-0.1765,-12.5878,5.855,20.5191,0.9042
1780907278.119584,0.0164,-1.1047,-0.2158,-1.7634,33.8626,5.2672,1.1257
1780907278.31861,0.157,-0.9126,-0.7415,-47.9084,20.1069,-10.6718,1.1863
1780907278.518135,0.0669,-0.9004,-0.5164,-9.9771,-21.0458,-37.5496,1.0401
1780907278.7182772,-0.0486,-1.1184,-0.3894,10.9313,-37.9695,2.7939,1.1853
1780907278.9181395,-0.0198,-0.9377,-0.6399,-72.5878,-62.1832,-51.4885,1.1354
1780907279.1195495,0.0745,-1.3396,-0.7219,-81.5343,-83.1603,-68.7176,1.5236
1780907279.3194482,-0.156,-0.9846,-0.2839,-48.3435,-40.1527,-38.1832,1.0365
1780907279.5206091,-0.123,-1.0291,-0.0698,3.2901,4.084,16.7176,1.0387
1780907279.7182012,-0.0029,-0.634,-0.1743,9.229,-2.7176,14.5802,0.6576
1780907279.918066,-0.0027,-0.7058,-0.0791,22.8702,-24.0229,0.4275,0.7102
1780907280.1197276,-0.1226,-1.0457,-0.2712,14.1908,-55.1908,-15.9237,1.0872
1780907280.3187866,0.0398,-0.907,-0.7017,-35.0458,-67.5496,-51.3511,1.1474
1780907280.5195062,-0.0254,-1.2283,-0.666,-32.1145,-67.0687,-61.4809,1.3975
1780907280.718234,-0.1499,-0.928,-0.2229,-33.2137,-26.0458,-35.9389,0.9661
1780907280.9195416,-0.2371,-1.0215,-0.0398,33.9313,51.0382,54.4809,1.0494
1780907281.1196537,-0.1514,-0.5208,-0.1438,-35.3053,6.4046,-21.2977,0.561
1780907281.320123,-0.1099,-0.7236,-0.2302,17.1298,32.6794,18.0153,0.7673
0,0,0,0,0,0,0,0
0,0,0,0,0,0,0,0
1780907282.5281813,-0.0056,-0.9509,-0.4058,6.4351,-0.9771,3.0534,1.0339
1780907282.7274766,0.0718,-0.9329,-0.439,-5.5878,-8.6412,1.0534,1.0335
1780907282.9779363,-0.0266,-0.9077,-0.5012,-12.8321,-22.3817,0.2672,1.0372
1780907283.1260712,-0.0557,-0.7556,-0.45,-33.9313,-28.3817,3.855,0.8812
1780907283.3286538,-0.146,-0.9397,-0.5173,-47.5878,-16.1298,-11.2824,1.0826
1780907283.5283282,-0.0979,-0.8137,-0.7295,-39.8702,-7.229,-13.0458,1.0972
1780907283.7273786,0.0134,-0.8762,-0.7405,-17.8702,1.6107,-19.1069,1.1473
1780907283.9318743,-0.0049,-0.7952,-0.6619,-20.0992,18.4886,3.2214,1.0346
1780907284.1293285,0.0527,-0.7385,-0.7798,8.229,-51.2366,10.2901,1.0753
1780907284.377212,0.0852,-0.4509,-0.2141,38.7481,0.084,-8.2443,0.5064
1780907284.5295262,-0.0967,-0.6726,-0.667,38.3893,27.458,21.6565,0.9522
1780907284.7287457,-0.0459,-0.8552,-0.6685,32.5649,2.0229,-1.771,1.0864
1780907284.9271982,0.2715,-0.938,-1.4236,19.0916,3.7939,-15.2672,1.7263
1780907285.1283195,0.3772,-0.9321,-0.5383,5.2901,-12.1756,-32.9237,1.1406
1780907285.328317,0.0547,-0.8491,-0.4905,29.6794,-13.7328,-5.4427,0.9821
1780907285.5781074,-0.0151,-0.9399,-0.3643,3.7405,1.7405,-3.7939,1.0082
1780907285.7294667,0.0164,-0.9458,-0.4121,1.6489,7.0382,-1.8244,1.0318
1780907285.9369726,0.0278,-0.916,-0.3804,-0.2061,-0.5496,-0.0076,0.9922
1780907286.1310315,0.0278,-0.9231,-0.4395,-5.8626,-7.6489,2.0534,1.0227
1780907286.326945,0.01,-0.9253,-0.4399,-1.8473,-4.7405,-0.3359,1.0246
1780907286.5271535,0.0178,-0.9148,-0.4382,-2.7099,-2.8397,0.7328,1.0145
1780907286.7281358,-0.0007,-0.9331,-0.4165,-2.3359,0.0916,1.1603,1.0218
1780907286.977792,0.0093,-0.9187,-0.4084,-3.7176,-1.5496,-0.2137,1.0054
1780907287.1269712,0.01,-0.9233,-0.4404,-4.6107,-1.2977,1.2595,1.0231
0,0,0,0,0,0,0,0
0,0,0,0,0,0,0,0
1780907288.299534,-0.0208,-0.9104,-0.4712,-3.0992,-6.1298,-0.7939,1.0253
1780907288.4984932,-0.0117,-0.894,-0.5039,-7.1374,-6.4122,1.1298,1.0263
1780907288.6985269,-0.0293,-0.8865,-0.5186,-5.4962,-0.8931,0.0,1.0274
1780907288.8985226,-0.0139,-0.8838,-0.5293,-11.1374,-0.4198,-0.7405,1.0303
1780907289.0985882,-0.0154,-0.8396,-0.551,-24.374,-1.5267,12.7786,1.0044
1780907289.2988427,-0.1392,-0.9734,-1.051,-42.6794,5.8626,21.8321,1.4393
1780907289.5614016,-0.0222,-0.8035,-0.8279,-16.687,2.5115,0.6947,1.1539
1780907289.6986697,-0.0547,-0.8943,-0.7559,56.1756,3.8397,8.4962,1.1722
1780907289.8978648,-0.0776,-0.8665,-0.4907,50.3053,-0.3206,-2.4275,0.9988
1780907290.0981636,-0.04,-0.3936,-0.1357,12.5115,5.4427,5.542,0.4182
1780907290.2987206,0.1169,-1.123,-0.6123,-58.3282,-2.4122,10.9008,1.2845
1780907290.4996753,-0.2358,-0.9265,-0.2708,-37.1908,-28.4046,-23.0076,0.9937
1780907290.7065632,-0.2488,-0.8818,-0.1562,-13.7557,-46.9466,-0.0611,0.9295
1780907290.8993623,-0.0308,-0.947,-0.1741,-10.8321,-34.2672,-15.9771,0.9634
1780907291.0993056,-0.1602,-0.8562,-0.0078,9.4198,-0.6718,-5.4656,0.8711
1780907291.2994037,-0.2432,-1.3733,-0.3828,-24.5573,-16.374,-16.855,1.4462
1780907291.4984388,0.3779,-0.8582,-0.4763,-27.8473,-14.4656,-30.3053,1.0517
1780907291.6983268,0.0127,-0.738,-0.0049,1.7405,10.6489,-8.5573,0.7382
1780907291.9071844,-0.0286,-1.0696,-0.2202,28.7023,-2.4733,0.9695,1.0924
1780907292.1003075,0.0154,-0.5291,-0.4524,12.5573,-0.3206,26.916,0.6963
1780907292.2988238,-0.0591,-0.8613,-0.24,16.2901,-16.5267,-7.7099,0.8961
1780907292.505613,-0.0613,-1.0486,-0.1868,19.7634,3.4122,-6.2977,1.0668
1780907292.6980693,-0.0032,-1.0229,-0.8857,-2.6107,27.8015,23.8702,1.3531
1780907292.8987892,0.3232,-1.1924,-0.8513,-26.7176,32.3053,37.1679,1.5003
1780907293.0983758,0.145,-1.071,-0.3989,-9.9084,-8.4427,17.145,1.1521
1780907293.2989163,0.1311,-1.0857,-0.3062,-22.6565,-45.6031,-5.4962,1.1356
1780907293.5008798,0.0239,-0.8904,-0.2068,-22.855,8.5954,-0.4046,0.9144
1780907293.698263,-0.1267,-0.9407,-0.3486,-17.5496,-13.6412,-30.3282,1.0112
0,0,0,0,0,0,0,0
0,0,0,0,0,0,0,0
1780907294.4430776,-0.0178,-0.9556,-0.2988,1.542,10.5802,2.6489,1.0014
1780907294.6377401,0.0476,-0.8772,-0.4016,-10.7405,18.4504,11.0534,0.9659
1780907294.843481,0.0947,-0.9822,-0.3713,-8.4427,17.3053,-7.1832,1.0543
1780907295.0354521,-0.0117,-1.1924,-0.3374,11.8321,93.7557,12.5878,1.2393
1780907295.2352412,0.2485,-0.8228,-0.5542,-14.145,115.8702,15.5954,1.0227
1780907295.4347217,0.2866,-0.8735,-0.4644,-16.2748,125.0611,34.3893,1.03
1780907295.635337,0.2302,-0.8418,-0.176,-5.1298,44.8168,-1.4351,0.8903
1780907295.8352633,0.0891,-0.949,-0.1235,4.3969,62.2061,46.771,0.9611
1780907296.0349755,0.0684,-0.6804,-0.3635,32.0382,65.2061,45.3511,0.7745
1780907296.2349894,0.0383,-0.7839,-0.2229,4.5725,22.0229,5.626,0.8159
1780907296.4351635,0.0886,-1.0061,-0.219,18.2672,24.0382,1.7557,1.0335
1780907296.63679,-0.1799,-1.156,-0.23,-36.4275,69.1908,28.4122,1.1923
