time,AccelX,AccelY,AccelZ,GyroX,GyroY,GyroZ,Total_A
1773565951.910339,0.09,-0.84,0.29,-12.93,-24.89,10.43,0.89
1773565951.964527,0.11,-0.88,0.28,-34.55,-13.97,-22.41,0.92
1773565952.0703802,0.09,-0.94,0.29,-16.56,-4.76,32.58,0.99
1773565952.1605778,0.04,-0.95,0.24,-48.47,-17.18,48.98,0.98
1773565952.2788074,-0.0,-0.97,0.21,-18.98,-21.66,6.15,0.99
1773565952.381394,-0.01,-0.97,0.22,-3.94,-26.41,-4.21,0.99
1773565952.4794538,0.07,-0.96,0.17,-18.06,24.7,9.14,0.98
1773565952.5879626,0.01,-0.96,0.18,-16.43,-1.07,3.62,0.97
1773565952.6882036,-0.01,-0.95,0.18,-9.68,-15.27,3.56,0.97
1773565952.7964318,-0.02,-0.95,0.16,-36.7,-28.95,20.98,0.97
1773565952.8955183,-0.01,-0.97,0.14,-24.47,-72.41,14.15,0.98
1773565952.9945664,-0.04,-0.97,0.11,-20.35,-111.37,1.37,0.97
1773565953.098801,-0.04,-1.01,0.08,-33.4,-110.78,-2.81,1.02
1773565953.197308,-0.03,-1.0,0.04,-36.56,-113.41,0.04,1.0
1773565953.3102305,0.01,-0.99,-0.0,-5.63,-88.67,4.35,0.99
1773565953.41309,0.04,-0.98,0.0,8.08,-74.58,-3.45,0.98
1773565953.50224,-0.03,-1.0,-0.06,1.94,-44.84,14.35,1.0
1773565953.615266,-0.09,-1.13,-0.04,-0.0,-69.12,18.4,1.13
1773565953.7144828,0.05,-0.87,0.08,14.2,-152.28,-20.9,0.88
1773565953.8286514,0.09,-0.93,0.11,-66.7,-37.94,-13.89,0.94
1773565953.9296155,0.1,-1.58,0.22,22.7,-48.73,118.63,1.6
1773565954.0294116,0.08,0.11,0.08,53.45,-48.49,38.76,0.16
1773565954.1471128,0.15,-0.85,0.1,-106.18,-106.08,-157.74,0.87
1773565954.238252,0.01,-2.0,0.31,23.8,-63.36,82.96,2.02
1773565954.345927,-0.1,-0.74,0.08,24.63,-28.35,80.67,0.75
1773565954.4540043,0.04,0.1,-0.07,-29.15,-48.95,-105.79,0.13
1773565954.5467212,-0.05,-0.91,0.06,-26.72,-130.75,-137.18,0.91
1773565954.6465423,-0.13,-2.0,0.43,17.95,-85.16,146.76,2.05
1773565954.752699,0.06,-1.31,0.13,-43.01,-7.71,105.57,1.32
1773565954.8485527,0.11,0.04,-0.05,15.4,2.47,-39.6,0.13
1773565954.9619458,0.16,-0.69,-0.12,-95.74,-110.86,-164.35,0.72
1773565955.063642,0.25,-2.0,0.24,14.35,-12.46,29.62,2.03
1773565955.164023,-0.19,-0.64,0.01,8.53,-3.99,28.87,0.66
1773565955.2732327,0.03,0.03,0.04,54.08,-18.49,-54.21,0.06
1773565955.3640428,0.1,-1.76,0.31,-32.73,-11.37,-33.36,1.79
1773565955.4814134,0.07,-1.84,0.37,25.48,85.79,132.44,1.88
1773565955.5790489,0.14,-0.52,0.09,-33.76,88.76,-12.29,0.55
1773565955.6840985,0.04,-0.2,-0.01,-26.4,7.82,-8.58,0.2
1773565955.7794056,0.11,-0.91,0.09,51.25,-111.85,-106.05,0.92
1773565955.895179,-0.05,-1.5,0.36,-16.81,-83.91,91.31,1.54
1773565955.9935122,-0.03,-1.28,0.32,-95.92,-0.08,145.88,1.31
1773565956.10039,0.13,-0.83,0.04,6.12,13.79,-23.6,0.84
0.0,0.0,0.0,0.0,0.0,0.0,0.0,0.0
1773565959.4411535,-0.15,-0.96,0.04,-2.08,-2.78,-8.32,0.97
1773565959.54656,-0.12,-1.0,0.07,-0.47,-4.23,-6.17,1.01
1773565959.6505198,-0.09,-1.15,0.09,11.14,13.4,-27.97,1.16
1773565959.748153,0.02,-1.08,0.15,32.46,46.76,-15.56,1.09
1773565959.8537743,0.12,-1.08,0.1,-1.01,37.11,-45.12,1.09
1773565959.957312,0.03,-0.76,0.1,-30.11,52.69,40.52,0.77
1773565960.061108,0.01,-0.73,0.11,-5.5,-9.05,0.35,0.74
1773565960.166205,0.0,-0.84,0.09,-31.37,-45.01,-24.49,0.84
1773565960.277898,-0.03,-1.1,0.09,-38.9,-92.37,-67.41,1.1
1773565960.3778844,-0.14,-1.31,0.09,-52.5,-79.36,116.69,1.32
1773565960.4791534,0.07,-1.68,0.05,4.02,-46.46,92.4,1.68
1773565960.580348,0.29,-0.47,0.02,19.02,-18.72,44.09,0.55
1773565960.680138,0.0,-0.45,-0.01,-18.58,-23.19,-35.63,0.45
1773565960.7817032,0.05,-0.48,-0.03,-5.44,-39.5,-158.89,0.49
1773565960.8990111,0.11,-1.41,0.04,1.89,-17.01,-105.3,1.41
1773565960.997409,-0.25,-1.66,0.0,32.09,72.27,64.81,1.67
1773565961.0927022,0.09,-1.34,0.19,62.0,94.64,65.75,1.36
1773565961.1963758,0.23,-0.64,0.07,-26.37,97.28,18.96,0.68
1773565961.3029706,0.02,-0.45,0.07,-21.07,47.04,6.99,0.45
1773565961.413241,0.08,-0.72,0.08,-1.11,-54.81,-107.19,0.73
1773565961.513972,-0.04,-1.16,0.16,20.99,-56.09,-35.59,1.17
1773565961.6144924,-0.21,-1.3,0.26,8.15,-53.91,65.34,1.34
1773565961.715006,0.03,-1.41,0.09,-62.53,4.5,37.54,1.42
1773565961.8240888,0.25,-0.72,0.03,-10.78,18.95,39.36,0.76
0.0,0.0,0.0,0.0,0.0,0.0,0.0,0.0
1773565964.6946766,0.01,-1.02,0.11,28.15,-36.29,-41.74,1.02
1773565964.7969372,-0.04,-0.92,0.06,-11.28,-35.41,-1.36,0.92
1773565964.8983295,-0.02,-0.98,0.01,-46.75,-41.42,4.17,0.98
1773565965.026488,-0.1,-0.96,-0.04,-45.04,-43.51,-26.52,0.96
1773565965.1283658,-0.09,-0.92,-0.02,18.82,-52.95,-41.92,0.92
1773565965.214425,-0.09,-0.96,0.04,13.6,-48.0,-53.51,0.97
1773565965.3137476,-0.09,-1.09,0.05,23.19,15.3,-25.41,1.09
1773565965.4342463,-0.09,-1.2,0.18,77.42,1.66,-16.76,1.22
1773565965.5292044,0.22,-1.19,0.18,47.16,66.61,-42.17,1.23
1773565965.6317766,0.24,-0.72,0.16,-60.64,72.69,-21.76,0.78
1773565965.7355037,0.16,-0.61,0.09,-49.56,6.69,55.42,0.64
1773565965.8443477,-0.11,-0.62,-0.07,-56.18,-107.59,4.06,0.63
1773565965.9467704,-0.06,-1.41,-0.02,38.27,-187.3,-122.96,1.41
1773565966.044885,-0.11,-1.37,0.21,37.92,-102.18,81.79,1.39
1773565966.1503534,0.27,-1.56,0.22,20.92,-41.41,58.15,1.6
1773565966.2476933,0.38,-0.75,-0.0,-77.77,-26.47,89.54,0.84
1773565966.3607745,-0.04,-0.41,0.04,1.07,-40.09,45.43,0.42
1773565966.4622593,-0.02,-0.41,0.06,36.4,-80.87,-163.01,0.42
1773565966.5633874,0.2,-0.99,0.23,16.17,-17.22,-131.73,1.03
1773565966.661015,-0.16,-1.64,0.31,30.84,88.79,31.07,1.68
1773565966.776273,0.31,-1.27,0.29,9.91,130.17,11.72,1.34
1773565966.876033,0.21,-0.71,0.16,-13.16,123.31,39.05,0.76
1773565966.9687412,0.14,-0.41,0.03,-4.14,51.68,88.7,0.44
1773565967.0782137,-0.09,-0.68,0.0,-53.31,-72.18,20.47,0.69
1773565967.1938183,-0.19,-1.08,0.09,-37.74,-183.18,-67.45,1.1
1773565967.3015127,-0.06,-1.97,0.47,40.18,-139.47,-76.69,2.03
1773565967.3941245,0.3,-0.8,0.1,-73.68,-16.46,64.43,0.86
0.0,0.0,0.0,0.0,0.0,0.0,0.0,0.0
1773565970.0630994,0.04,-0.96,0.14,-9.45,-118.64,-20.83,0.97
1773565970.1613994,0.03,-0.99,0.08,-11.47,-109.44,-2.54,0.99
1773565970.2631965,0.01,-1.01,0.08,-39.62,-111.33,-12.21,1.02
1773565970.371581,-0.07,-0.92,0.14,31.31,-85.15,-13.6,0.94
1773565970.4689565,-0.03,-0.95,0.14,17.56,-35.44,-17.59,0.96
1773565970.5635462,0.05,-1.21,0.22,61.18,1.79,-36.43,1.23
1773565970.6793902,0.19,-1.21,0.32,49.97,69.13,-82.72,1.27
1773565970.7767494,0.27,-0.81,0.2,-28.43,110.09,47.95,0.87
1773565970.8892446,0.15,-0.85,0.23,-30.73,66.4,66.61,0.89
1773565970.9792483,0.08,-0.75,0.14,-85.74,22.41,51.51,0.76
1773565971.086118,-0.06,-0.64,0.04,-31.51,-8.28,-63.65,0.64
1773565971.193357,0.02,-1.26,0.16,-13.76,-91.28,-85.66,1.27
1773565971.2853618,-0.14,-1.46,0.2,-23.05,-121.66,103.46,1.48
1773565971.3989058,0.07,-1.13,0.11,-22.21,-62.34,49.54,1.14
1773565971.4969585,0.28,-0.92,-0.12,-75.33,-57.01,64.3,0.97
1773565971.6098614,0.28,-1.09,0.15,90.41,-108.81,36.7,1.13
1773565971.7099786,-0.18,-0.08,0.09,47.8,-66.49,14.3,0.22
1773565971.8149984,-0.02,-0.45,0.19,-79.15,-61.05,-281.53,0.49
1773565971.923545,0.57,-2.0,0.37,-13.54,62.79,-117.82,2.11
1773565972.0189016,0.12,-1.62,0.48,139.4,177.57,142.08,1.69
1773565972.1252053,0.25,-0.43,0.15,-87.37,128.23,7.77,0.52
1773565972.2252254,0.34,-0.57,0.14,-64.15,91.3,31.14,0.67
1773565972.3297124,-0.05,-0.54,0.05,-71.79,4.34,-10.66,0.54
1773565972.4221618,0.07,-0.98,0.07,-14.58,-104.98,-189.12,0.98
1773565972.5295222,-0.04,-1.86,0.33,109.42,-85.18,27.85,1.89
1773565972.6468012,0.41,-1.21,0.26,64.67,-14.09,121.28,1.3
1773565972.7436745,0.28,-0.62,0.07,-78.11,-27.39,147.3,0.68
1773565972.84456,0.02,-0.63,0.05,-10.64,-62.89,12.38,0.63
0.0,0.0,0.0,0.0,0.0,0.0,0.0,0.0
1773565975.7507734,0.11,-0.88,0.3,10.37,-29.54,-87.08,0.93
1773565975.8595693,0.03,-0.86,0.34,-49.31,-5.05,-31.42,0.93
1773565975.9676602,-0.01,-1.05,0.26,37.19,3.28,-33.07,1.08
1773565976.067367,-0.04,-0.84,0.17,-44.35,10.05,12.3,0.86
1773565976.1723945,-0.08,-0.92,0.08,-70.84,-25.62,-53.16,0.93
1773565976.2739005,0.15,-1.06,0.17,-12.27,-60.79,-15.94,1.09
1773565976.3788922,-0.01,-1.12,0.13,-43.27,-91.42,21.14,1.13
1773565976.4766695,0.37,-1.17,0.11,-5.54,-66.82,85.48,1.23
1773565976.5785756,0.05,-0.93,-0.08,-51.1,-83.51,91.3,0.94
1773565976.6758523,0.09,-0.68,-0.01,22.37,-139.21,43.63,0.69
1773565976.7933395,0.04,-0.71,0.16,68.67,-134.99,-84.63,0.73
1773565976.896782,0.11,-0.89,0.32,40.81,-37.3,-96.79,0.95
1773565977.0098422,0.04,-1.35,0.39,19.56,45.56,-72.64,1.41
1773565977.0937495,0.46,-1.44,0.52,56.78,182.73,24.87,1.6
1773565977.2094195,0.24,-0.62,0.15,-158.98,165.71,109.17,0.68
1773565977.2989094,0.11,-0.46,-0.01,-28.4,50.73,49.25,0.47
1773565977.4095483,0.02,-0.72,0.03,-3.15,-74.31,-147.5,0.72
1773565977.5120502,0.16,-1.1,0.12,13.62,-140.4,-75.91,1.12
1773565977.625878,-0.55,-1.7,0.25,88.7,-140.64,174.55,1.81
1773565977.7285752,0.59,-0.85,0.24,-67.59,-18.98,115.95,1.06
1773565977.8440862,0.16,-0.67,0.03,-115.79,-7.89,104.15,0.69
1773565977.9290707,0.11,-0.55,0.15,101.62,-68.82,-99.83,0.58
1773565978.0593984,0.12,-0.64,0.32,78.31,31.24,-139.99,0.73
1773565978.1467493,-0.15,-1.2,0.37,-3.98,206.18,-8.64,1.27
1773565978.2550068,-0.3,-1.79,0.55,63.22,170.49,26.49,1.9
1773565978.3464394,0.48,-0.67,0.23,-141.85,100.0,-3.97,0.85
1773565978.4442143,0.06,-0.64,0.01,-62.4,26.84,84.67,0.64
0.0,0.0,0.0,0.0,0.0,0.0,0.0,0.0
1773565980.8930526,0.01,-1.04,0.08,-2.89,-91.13,-41.33,1.04
1773565981.0925615,0.05,-0.9,0.04,6.38,-70.82,29.79,0.9
1773565981.1085026,0.03,-0.95,0.12,15.57,-60.79,-8.87,0.96
1773565981.2062871,0.07,-1.01,0.22,87.31,-13.62,-87.82,1.04
1773565981.3090162,0.1,-1.36,0.41,27.59,62.55,-44.75,1.42
1773565981.4106894,0.29,-0.83,0.15,-75.71,139.19,154.56,0.89
1773565981.5128658,0.07,-0.71,0.16,-31.07,54.7,0.69,0.73
1773565981.6266732,0.22,-0.74,0.13,-6.18,20.23,-37.19,0.78
1773565981.711833,0.01,-0.8,-0.0,-44.46,-53.66,-42.38,0.8
1773565981.8129263,0.02,-1.19,0.1,100.17,-150.2,-169.88,1.2
1773565981.9277165,0.17,-1.41,0.25,-42.32,-194.89,40.14,1.45
1773565982.0263016,0.27,-1.07,0.01,11.6,-97.12,196.27,1.11
1773565982.1335204,0.27,-1.02,-0.1,-30.98,-157.07,188.27,1.06
1773565982.228416,0.23,-0.77,0.11,32.76,-82.49,133.72,0.82
1773565982.3432815,-0.03,-0.23,0.11,-66.76,-78.02,-45.34,0.26
1773565982.4339736,0.11,-0.91,0.21,50.73,-16.63,-268.93,0.94
1773565982.5428038,0.14,-1.57,0.36,51.25,88.0,-104.81,1.61
1773565982.6487677,0.23,-1.36,0.37,110.84,174.06,18.14,1.42
1773565982.7596123,0.2,-0.52,0.18,-143.19,151.63,23.83,0.58
1773565982.859052,0.14,-0.65,0.09,-74.5,108.96,42.14,0.67
1773565982.9596255,0.07,-0.67,0.05,-27.98,15.86,-71.76,0.68
1773565983.0664256,0.11,-1.01,0.16,39.42,-68.61,-101.16,1.02
1773565983.1601706,-0.01,-1.44,0.35,76.58,-63.7,94.09,1.49
1773565983.259937,0.38,-0.94,0.22,-80.23,-16.64,68.82,1.04
1773565983.3765297,0.12,-0.84,0.09,-59.6,17.27,144.58,0.85
1773565983.4715118,0.19,-0.68,0.19,13.21,-31.88,-13.16,0.73
1773565983.5781236,0.1,-0.68,0.18,-25.36,7.08,-44.79,0.71
0.0,0.0,0.0,0.0,0.0,0.0,0.0,0.0
1773565985.7037952,0.13,-0.86,0.46,62.78,-56.78,-28.4,0.99
1773565985.7871318,0.09,-0.85,0.34,-28.7,-6.34,-39.24,0.91
1773565985.891546,0.11,-0.93,0.21,-65.6,18.46,-20.43,0.96
1773565985.9932082,0.07,-1.1,0.09,-16.78,-28.29,19.54,1.11
1773565986.0921278,0.01,-1.26,0.09,-29.25,-127.36,66.11,1.26
1773565986.200462,0.1,-1.18,0.02,72.69,-117.31,56.53,1.18
1773565986.3088777,0.4,-0.73,0.15,16.21,-102.58,76.21,0.85
1773565986.409912,0.35,-0.85,0.19,19.24,-139.95,-3.99,0.94
1773565986.516282,0.05,-0.4,0.19,-17.65,-130.98,0.79,0.44
1773565986.608454,0.16,-0.9,0.42,37.63,-188.66,-204.35,1.0
1773565986.7097883,0.23,-1.61,0.52,55.54,88.98,9.45,1.71
1773565986.825169,0.15,-1.29,0.44,87.24,139.92,107.72,1.37
1773565986.9175415,0.53,-0.57,0.24,-192.27,149.85,71.6,0.81
1773565987.0251005,0.13,-0.63,-0.02,-136.02,72.64,57.11,0.65
1773565987.127801,-0.07,-0.65,-0.01,40.41,-59.37,-88.66,0.66
1773565987.2337697,0.12,-0.97,0.1,59.08,-98.47,-79.59,0.98
1773565987.323296,-0.12,-1.54,0.17,8.72,-110.73,55.66,1.55
1773565987.444754,0.33,-1.32,0.32,59.1,-66.57,59.6,1.39
1773565987.5449464,0.25,-0.73,-0.07,-157.22,-49.12,219.04,0.77
1773565987.6335502,0.13,-0.64,0.05,46.26,-96.46,-67.47,0.66
1773565987.7601788,0.2,-0.6,0.22,70.55,-85.71,-186.18,0.67
1773565987.859123,0.09,-0.93,0.35,-64.24,-23.3,-24.52,0.99
1773565987.9501357,-0.67,-1.43,0.3,202.67,99.36,147.02,1.6
1773565988.0661595,0.33,-1.15,0.73,-46.24,179.66,-177.13,1.4
1773565988.16171,0.41,-0.75,0.13,-264.58,119.71,31.14,0.87
1773565988.2612736,-0.06,-0.67,-0.03,-16.93,36.21,150.15,0.67
0.0,0.0,0.0,0.0,0.0,0.0,0.0,0.0
1773565990.4172387,0.26,-1.18,0.15,93.83,-33.31,-11.47,1.22
1773565990.4845386,0.41,-1.04,0.18,-3.51,-14.05,38.29,1.13
1773565990.576283,0.22,-0.77,0.13,-32.47,-28.44,100.3,0.81
1773565990.677166,0.12,-0.74,0.16,6.14,-79.42,4.85,0.76
1773565990.792036,0.22,-0.73,0.23,95.5,-112.35,-77.48,0.79
1773565990.8960552,0.22,-0.91,0.29,-16.84,-81.42,-17.27,0.98
1773565991.001049,0.09,-1.21,0.17,-63.16,-70.34,44.35,1.22
1773565991.0924113,0.17,-1.23,0.13,15.04,-98.08,77.34,1.24
1773565991.1936958,0.42,-0.95,0.07,-94.38,-106.12,89.66,1.04
1773565991.3095524,0.16,-0.82,-0.07,29.98,-98.41,159.25,0.84
1773565991.4091823,0.17,-0.65,0.07,77.95,-139.53,-27.86,0.67
1773565991.5117605,0.19,-0.67,0.26,26.44,-124.86,-102.92,0.74
1773565991.608748,0.22,-1.08,0.36,-20.82,-38.08,-72.11,1.16
1773565991.721794,0.08,-1.34,0.38,37.82,55.65,-46.28,1.39
1773565991.8259692,0.55,-1.06,0.41,60.96,144.15,31.33,1.26
1773565991.9257824,0.19,-0.55,0.22,-192.41,93.37,39.86,0.62
1773565992.024849,0.19,-0.77,0.14,-56.27,118.61,24.09,0.81
1773565992.1280844,0.2,-0.78,0.07,-1.57,19.66,-20.4,0.81
1773565992.2414382,0.06,-1.01,0.09,-34.95,-54.52,-71.21,1.02
1773565992.3412566,-0.12,-1.34,0.16,32.41,-172.82,0.81,1.35
1773565992.4334605,0.61,-1.37,0.24,47.82,-11.24,36.44,1.52
1773565992.54312,0.28,-0.73,-0.04,-112.98,-72.28,162.84,0.79
1773565992.651569,0.22,-0.73,0.11,-0.46,-84.44,8.5,0.77
0.0,0.0,0.0,0.0,0.0,0.0,0.0,0.0
1773565996.2546904,0.09,-0.98,0.07,-6.55,-46.75,2.78,0.99
1773565996.3439946,0.04,-0.95,0.04,-30.72,-71.74,0.98,0.95
1773565996.4513576,0.05,-0.98,0.07,-0.58,-86.5,-33.07,0.98
1773565996.5477417,-0.02,-0.91,0.14,18.06,-91.07,-27.51,0.92
1773565996.6430576,0.03,-1.01,0.22,37.19,-64.78,-32.0,1.03
1773565996.7595358,0.11,-1.01,0.28,51.5,-0.17,-23.1,1.05
1773565996.8630283,0.19,-1.08,0.29,67.27,62.17,-82.05,1.13
1773565996.974849,0.45,-1.06,0.25,-40.15,89.51,-19.13,1.18
1773565997.060159,0.12,-0.66,0.18,-36.58,94.38,52.32,0.7
1773565997.1662822,0.28,-0.84,0.21,-19.8,40.11,0.76,0.91
1773565997.2774837,0.1,-0.81,0.12,-50.35,-17.16,38.23,0.83
1773565997.3843334,0.02,-0.84,0.06,32.53,-103.85,-28.05,0.84
1773565997.4854429,0.05,-1.14,0.15,-5.6,-179.88,-7.16,1.15
1773565997.5743997,-0.21,-1.42,0.24,61.97,-164.32,104.29,1.45
1773565997.6902883,0.59,-0.93,0.24,-77.44,-32.84,132.26,1.13
1773565997.792115,0.21,-0.97,0.11,-111.82,-97.59,168.23,0.99
1773565997.890588,0.03,-0.33,0.09,14.63,-112.15,16.56,0.35
1773565997.9916606,0.14,-0.5,0.06,36.06,-51.82,-200.05,0.52
1773565998.0919423,0.26,-1.31,0.28,-11.01,34.79,-151.73,1.36
1773565998.2082517,0.16,-1.76,0.33,149.36,96.0,58.23,1.79
1773565998.313615,0.34,-0.6,0.37,-99.34,160.53,58.21,0.78
1773565998.4073277,0.31,-0.68,0.1,-155.42,98.37,-3.42,0.75
1773565998.5159273,0.06,-0.64,-0.01,-87.63,43.33,58.75,0.64
1773565998.6239607,0.03,-0.75,0.01,61.66,-74.15,-53.31,0.75
1773565998.7253373,-0.12,-1.15,0.14,34.12,-182.46,-54.26,1.16
0.0,0.0,0.0,0.0,0.0,0.0,0.0,0.0
1773566000.624333,0.26,-1.01,0.24,159.98,-90.92,-55.97,1.07
1773566000.7247622,0.26,-1.05,0.22,52.93,-32.08,56.41,1.11
1773566000.8309183,0.27,-1.01,0.18,4.06,-38.05,59.28,1.06
1773566000.9405203,0.3,-0.88,0.24,13.95,-132.57,29.46,0.96
1773566001.0403347,0.38,-0.76,0.23,28.52,-161.79,127.53,0.88
1773566001.1421216,0.19,-0.66,0.21,110.38,-212.02,-8.75,0.72
1773566001.2406976,0.33,-0.79,0.39,99.3,-195.15,-50.86,0.94
1773566001.3446286,0.25,-0.94,0.36,18.09,-165.08,37.79,1.04
1773566001.4569464,0.19,-1.04,0.31,6.06,-143.22,84.29,1.11
1773566001.5607424,0.32,-1.18,0.36,-2.35,-148.55,109.48,1.27
1773566001.660931,0.5,-1.11,0.24,-96.81,-64.66,142.79,1.24
1773566001.757982,0.21,-0.62,-0.15,-73.95,-150.84,148.37,0.67
1773566001.8598862,0.63,-1.04,0.19,174.31,-207.16,-63.99,1.23
1773566001.9750404,0.2,-0.43,0.25,-40.03,-137.31,34.08,0.54
1773566002.0807388,0.02,-0.53,0.22,41.19,-106.29,-204.72,0.57
1773566002.181693,0.62,-1.53,0.63,1.53,24.56,-140.49,1.76
1773566002.27527,0.13,-1.48,0.43,164.96,209.22,279.37,1.55
1773566002.3756757,0.31,-0.51,0.17,-136.92,170.55,113.91,0.62
1773566002.490189,0.21,-0.55,0.16,-92.47,59.6,-68.61,0.61
1773566002.578503,0.27,-0.67,0.2,-32.12,15.91,-80.02,0.75
1773566002.6937702,0.15,-0.73,0.16,-45.28,-53.45,-96.92,0.77
1773566002.790211,0.07,-1.71,0.27,68.5,-165.83,-25.83,1.74
1773566002.906824,0.27,-1.27,0.49,115.05,-26.73,117.59,1.39
1773566003.0071824,0.25,-0.67,0.16,-146.86,21.69,163.77,0.73
1773566003.0944884,0.22,-0.8,0.05,2.9,-35.77,39.22,0.83
1773566003.2155106,0.28,-0.52,0.2,33.74,-81.44,-103.62,0.62
1773566003.3116865,0.16,-0.86,0.29,-27.07,-48.26,-146.57,0.92
1773566003.4234784,0.15,-1.3,0.41,18.84,58.96,0.34,1.37
1773566003.5235164,0.16,-1.3,0.57,94.75,98.21,-59.54,1.43
1773566003.631276,0.36,-0.64,0.33,-142.21,172.37,120.52,0.8
0.0,0.0,0.0,0.0,0.0,0.0,0.0,0.0
1773566005.206638,0.31,-0.85,0.33,128.75,-272.63,56.98,0.97
1773566005.314393,0.34,-0.77,0.41,17.79,-271.22,83.5,0.94
1773566005.4146175,0.2,-0.7,0.43,67.77,-207.3,37.43,0.84
1773566005.526374,0.32,-0.73,0.47,77.89,-135.39,-16.79,0.93
1773566005.6312802,0.4,-1.0,0.55,-74.9,-77.19,24.11,1.21
1773566005.7316658,0.34,-1.26,0.31,-42.4,-58.15,32.85,1.34
1773566005.835455,0.4,-0.79,0.14,-31.57,-93.85,196.69,0.9
1773566005.9407787,0.39,-0.96,0.28,53.48,-176.92,118.23,1.08
1773566006.039978,0.34,-0.68,0.37,43.08,-135.94,134.01,0.84
1773566006.1457782,0.02,-0.38,0.28,-23.19,-104.5,20.37,0.47
1773566006.249098,0.25,-0.92,0.49,43.31,-11.47,-177.15,1.07
1773566006.3524811,0.19,-1.2,0.56,-26.37,75.59,-66.23,1.33
1773566006.456148,0.36,-0.88,0.52,65.53,186.92,14.32,1.08
1773566006.5634966,0.24,-0.63,0.41,-142.14,123.31,-43.76,0.79
1773566006.663349,0.21,-0.65,0.19,-144.67,92.64,-15.77,0.71
1773566006.762638,0.07,-0.72,0.08,-74.29,-11.42,-54.66,0.73
1773566006.8630211,0.18,-1.28,0.12,64.79,-129.02,-51.47,1.3
1773566006.9726374,0.31,-1.6,0.37,150.7,-97.07,36.04,1.67
1773566007.074462,0.32,-0.77,0.19,-114.18,-55.68,223.66,0.85
1773566007.178852,0.11,-0.83,0.09,32.7,-55.33,84.09,0.84
1773566007.2821624,0.1,-0.26,0.14,65.53,-122.86,-33.25,0.31
1773566007.3876994,0.42,-0.61,0.48,69.34,-64.72,-231.94,0.88
1773566007.493172,0.32,-1.34,0.63,-63.53,91.48,-101.65,1.52
1773566007.591719,0.39,-1.08,0.48,70.35,179.82,44.72,1.24
1773566007.6917086,0.24,-0.73,0.4,-193.92,70.4,-8.58,0.87
1773566007.7947383,0.15,-0.73,0.12,-120.21,86.47,102.09,0.76
0.0,0.0,0.0,0.0,0.0,0.0,0.0,0.0
1773566010.0772254,0.24,-0.97,0.43,26.21,-24.14,-159.36,1.09
1773566010.1026316,0.44,-1.07,0.56,1.66,13.42,-108.72,1.29
1773566010.2733643,0.47,-0.96,0.63,35.95,70.82,-117.08,1.25
1773566010.3076687,0.49,-0.68,0.44,-77.5,187.36,33.37,0.95
1773566010.4869928,0.38,-0.53,0.37,-101.8,138.88,34.3,0.75
1773566010.5165565,0.27,-0.59,0.22,-130.76,65.11,41.94,0.68
1773566010.6882932,0.2,-0.66,0.1,-8.64,-38.31,-52.25,0.7
1773566010.7245514,0.34,-1.04,0.31,55.68,-115.42,-43.68,1.14
1773566010.8232622,0.13,-1.29,0.46,24.64,-190.06,112.88,1.38
1773566010.9230003,0.47,-1.0,0.5,32.38,-33.27,135.11,1.22
1773566011.0323818,0.33,-0.73,0.27,-73.36,-74.09,149.02,0.85
1773566011.135405,0.28,-0.63,0.26,41.37,-98.24,104.59,0.74
1773566011.2401123,0.2,-0.34,0.28,41.22,-162.73,-35.37,0.48
1773566011.3400354,0.44,-0.85,0.64,-7.48,-108.66,-171.91,1.15
1773566011.4432926,0.28,-1.46,0.78,21.85,19.28,-71.7,1.68
1773566011.5431178,0.4,-0.69,0.59,85.42,214.06,22.85,1.0
1773566011.6494548,0.36,-0.61,0.43,-173.15,132.99,-99.77,0.83
1773566011.741888,0.4,-0.6,0.25,-182.23,139.62,24.15,0.76
1773566011.8566298,0.13,-0.68,0.04,-54.93,14.17,-32.78,0.69
1773566011.9561632,0.09,-1.07,0.2,110.41,-92.99,-21.33,1.09
1773566012.064505,0.28,-1.43,0.45,70.14,-151.74,-66.95,1.52
1773566012.169714,0.35,-0.8,0.17,-81.95,-115.37,130.0,0.89
0.0,0.0,0.0,0.0,0.0,0.0,0.0,0.0
1773566014.1516438,0.25,-0.9,0.37,42.99,-17.76,-48.99,1.0
1773566014.2539155,0.46,-0.8,0.58,67.22,-42.73,-102.25,1.09
1773566014.3597846,0.3,-0.68,0.4,-1.66,40.9,45.98,0.84
1773566014.4621837,0.14,-0.65,0.3,17.95,-12.35,15.63,0.73
1773566014.5707023,0.19,-1.06,0.36,-37.34,-62.5,17.05,1.13
1773566014.6725955,0.08,-1.06,0.22,-61.48,-101.59,115.05,1.08
1773566014.771151,-0.1,-1.4,0.23,2.55,-171.12,80.38,1.43
1773566014.879912,0.38,-1.08,0.28,-7.88,-121.5,173.01,1.18
1773566014.9823935,0.29,-0.75,0.26,51.92,-48.44,209.27,0.84
1773566015.082395,0.04,-0.33,0.22,-53.19,-128.7,30.63,0.4
1773566015.1855934,0.11,-0.39,0.26,-19.66,-154.05,-273.3,0.48
1773566015.2897632,0.56,-1.2,0.62,3.44,29.89,-271.82,1.46
1773566015.391117,0.21,-1.71,0.68,118.41,138.43,31.56,1.85
1773566015.4913683,0.32,-0.48,0.37,-107.53,163.89,82.24,0.69
1773566015.5915096,0.26,-0.64,0.14,-157.59,83.39,56.49,0.7
1773566015.6878889,0.14,-0.57,0.02,-50.23,18.81,-12.21,0.59
1773566015.8036263,0.01,-0.84,0.16,3.91,-96.93,-65.63,0.85
1773566015.9075649,0.07,-1.45,0.4,40.61,-188.26,-56.43,1.5
1773566015.9962735,0.43,-1.23,0.41,-2.56,-17.82,188.67,1.37
1773566016.1227612,0.16,-0.86,0.07,-18.38,-66.58,126.46,0.88
1773566016.2261975,0.14,-0.58,0.2,72.58,-66.73,19.42,0.63
1773566016.3227768,0.22,-0.46,0.34,38.08,-8.84,-62.76,0.62
1773566016.416567,0.02,-0.85,0.38,-81.57,0.5,-89.04,0.93
1773566016.5249462,-0.19,-1.67,0.43,141.71,64.01,59.22,1.73
1773566016.636872,0.45,-0.98,0.44,-131.69,172.21,47.43,1.17
1773566016.7380962,0.08,-0.59,0.06,-95.91,18.69,78.66,0.6
1773566016.832963,0.01,-0.7,0.03,8.75,-54.41,45.71,0.7
0.0,0.0,0.0,0.0,0.0,0.0,0.0,0.0
1773566022.2954004,0.1,-0.88,0.35,7.5,48.56,-110.28,0.95
1773566022.4084475,0.05,-1.21,0.35,-25.33,89.36,-35.71,1.26
1773566022.5104258,-0.12,-1.1,0.2,-27.22,58.14,-26.9,1.12
1773566022.612554,-0.15,-0.58,-0.07,-76.2,-22.84,4.11,0.61
1773566022.7237594,0.08,-0.47,-0.1,2.49,-121.82,9.08,0.48
1773566022.8247054,0.44,-2.0,0.08,-18.5,-214.76,-100.44,2.05
1773566022.9226096,0.04,-0.75,0.37,-37.07,-154.55,127.07,0.83
1773566023.0415795,0.12,-0.06,0.53,23.86,71.22,-48.09,0.55
1773566023.1225984,0.6,-0.89,0.57,-8.6,318.23,43.34,1.22
1773566023.2244928,0.32,-1.98,0.15,135.36,450.24,-205.21,2.01
1773566023.3276892,-0.23,-0.32,-0.44,-236.76,108.47,130.96,0.59
1773566023.438334,-0.48,-0.59,-0.75,53.68,-260.52,0.66,1.07
1773566023.5812824,0.45,-2.0,-0.06,-8.38,-344.55,-140.14,2.05
1773566023.649503,0.15,-0.49,0.98,-48.93,-262.53,-120.15,1.11
1773566023.7408462,0.39,-0.33,0.49,-105.08,285.45,-4.12,0.71
1773566023.8489213,0.99,-1.52,0.38,144.73,489.97,-24.29,1.85
1773566023.9574735,0.38,-1.15,-0.57,-81.25,222.5,-95.48,1.34
1773566024.0599096,-0.4,-0.15,-0.71,-48.31,-76.09,163.56,0.83
1773566024.1708045,-0.03,-0.55,-0.39,157.59,-402.34,-118.41,0.68
1773566024.2588103,0.96,-2.0,0.59,-56.12,-303.16,186.72,2.3
1773566024.3705602,0.01,-0.33,0.48,-3.34,-182.69,3.01,0.58
1773566024.4782355,0.09,-0.04,0.5,-48.08,78.79,-27.45,0.51
1773566024.570988,0.6,-1.86,0.62,69.18,440.38,-93.04,2.05
1773566024.6910474,0.18,-1.2,-0.35,-53.45,299.39,-79.8,1.26
1773566024.784655,-0.12,-0.24,-0.6,-7.01,79.01,23.75,0.66
0.0,0.0,0.0,0.0,0.0,0.0,0.0,0.0
1773566026.5744758,0.05,-0.82,0.32,102.87,-172.55,-140.64,0.88
1773566026.6791322,0.36,-1.06,0.55,14.46,-2.7,-87.53,1.25
1773566026.7722073,0.04,-1.18,0.21,4.41,174.49,87.19,1.2
1773566026.8768697,-0.36,-0.96,-0.29,23.63,33.47,-7.83,1.07
1773566026.9890313,-0.01,-0.49,-0.57,-162.84,-278.6,1.86,0.75
1773566027.0907018,0.17,-2.0,-0.6,91.11,-510.57,-29.53,2.09
1773566027.1899729,0.46,-1.08,0.42,21.88,-289.88,194.55,1.24
1773566027.294727,-0.0,0.14,0.52,-66.08,-53.5,57.5,0.54
1773566027.4025445,0.71,-0.63,0.6,-33.45,118.24,-94.2,1.13
1773566027.507137,0.65,-2.0,-0.02,31.02,438.2,112.79,2.1
1773566027.6055388,-0.16,-0.48,-0.84,-93.19,183.11,111.14,0.98
1773566027.7123675,-0.2,0.17,-0.65,16.56,-69.94,37.88,0.7
1773566027.8055315,-0.02,-2.0,-0.32,-167.1,-492.92,72.47,2.03
1773566027.9058752,0.25,-1.78,0.3,-16.79,-376.75,-15.12,1.83
1773566028.0151217,0.16,0.26,0.7,52.66,-75.62,-87.42,0.77
1773566028.1243353,0.68,-0.32,0.72,57.73,233.3,-13.77,1.04
1773566028.2258966,0.76,-2.0,0.24,-28.27,435.1,3.94,2.15
1773566028.3185506,-0.13,-0.58,-0.66,-129.92,253.94,205.3,0.89
1773566028.4357717,-0.33,0.09,-0.7,39.98,-113.39,82.04,0.78
1773566028.5258749,0.06,-1.05,-0.13,-37.22,-350.43,52.3,1.06
1773566028.6389377,0.33,-1.77,0.34,-52.66,-359.39,86.55,1.84
1773566028.7448928,0.05,-0.21,0.31,27.31,-211.45,-51.02,0.38
1773566028.8408432,0.14,-0.21,0.57,52.09,92.06,136.9,0.62
1773566028.958542,0.44,-2.0,0.05,76.15,265.47,-82.78,2.05
1773566029.055872,-0.12,-0.91,-0.18,-86.47,37.34,213.16,0.93
0.0,0.0,0.0,0.0,0.0,0.0,0.0,0.0
1773566030.483569,0.37,-2.0,-0.19,-22.78,-460.92,-34.75,2.04
1773566030.5794065,0.3,-1.17,0.35,1.3,-347.97,76.24,1.26
1773566030.6899557,0.16,-0.05,0.45,-7.56,-140.93,-91.15,0.48
1773566030.787643,0.44,-0.72,0.49,-1.56,111.01,-59.94,0.98
1773566030.8863964,0.69,-2.0,0.11,55.83,437.11,62.09,2.12
1773566030.9884758,0.08,-0.89,-0.46,-37.47,238.64,61.3,1.01
1773566031.0902274,-0.27,-0.02,-0.63,-43.22,25.04,169.83,0.69
1773566031.1887257,-0.06,-0.79,-0.35,-72.53,-379.05,43.08,0.87
1773566031.3028834,0.36,-2.0,0.34,-115.28,-351.79,-3.39,2.06
1773566031.4051704,0.12,-0.08,0.51,119.47,-72.11,-80.86,0.53
1773566031.5110412,0.08,0.21,0.43,153.83,154.38,189.39,0.48
1773566031.6114848,0.96,-1.83,0.69,112.02,402.46,-307.18,2.18
1773566031.7118618,0.51,-1.43,-0.22,-225.56,180.4,-33.48,1.53
1773566031.8222048,-0.45,-0.17,-0.71,-25.15,109.6,59.65,0.86
1773566031.919412,0.16,-0.2,-0.28,136.03,-218.75,-150.28,0.38
1773566032.0261014,0.81,-2.0,0.09,23.39,-196.58,289.89,2.16
1773566032.1204712,0.0,-0.89,0.2,-21.98,-240.73,46.5,0.91
1773566032.227303,0.16,-0.06,0.47,-11.3,-108.64,89.16,0.5
0.0,0.0,0.0,0.0,0.0,0.0,0.0,0.0
1773566033.8486917,-0.05,-0.71,-0.29,28.27,-202.28,-17.77,0.77
1773566033.9405253,0.23,-2.0,-0.14,-130.17,-394.46,31.27,2.02
1773566034.0447505,0.18,-0.98,0.31,-8.66,-236.41,67.01,1.04
1773566034.155627,0.21,-0.07,0.38,-54.37,-136.18,-119.86,0.44
1773566034.256816,0.28,-0.68,0.5,61.47,49.65,-68.38,0.89
1773566034.3614163,1.01,-2.0,0.21,64.96,390.87,-96.34,2.25
1773566034.4564407,0.03,-1.1,-0.31,-17.69,203.72,0.55,1.14
1773566034.5733092,-0.49,-0.03,-0.49,-95.68,-5.36,96.43,0.69
1773566034.6724534,0.01,-0.76,-0.51,95.34,-367.53,-31.71,0.92
1773566034.7720978,0.66,-2.0,0.23,-24.43,-288.67,221.19,2.12
1773566034.8751645,0.1,-0.44,0.46,-47.94,-218.78,-98.55,0.65
1773566034.9837787,0.09,0.14,0.41,-21.59,77.47,34.06,0.44
1773566035.0853102,0.13,-1.07,0.76,85.42,301.6,-51.86,1.32
1773566035.1898663,0.36,-2.0,-0.3,-18.41,337.51,5.98,2.05
1773566035.2901003,-0.39,-0.25,-0.54,-93.19,97.4,77.56,0.71
1773566035.3947773,-0.26,0.01,-0.43,129.48,-125.45,-100.12,0.5
1773566035.496278,0.24,-2.0,-0.0,-98.4,-295.74,29.28,2.01
1773566035.6021917,0.17,-1.56,0.2,-33.66,-276.0,30.63,1.58
1773566035.7065816,0.04,-0.39,0.24,-16.47,-187.5,19.42,0.46
1773566035.8048012,-0.0,0.03,0.31,122.58,-40.12,69.4,0.31
0.0,0.0,0.0,0.0,0.0,0.0,0.0,0.0
1773566038.6620853,0.02,-1.02,-0.02,18.78,-169.51,60.79,1.02
1773566038.7724817,0.08,-0.94,0.1,19.71,-203.66,7.1,0.95
1773566038.8756316,0.07,-0.88,0.17,22.9,-174.4,34.82,0.9
1773566038.9729931,0.15,-0.83,0.29,25.94,-136.98,-52.58,0.89
1773566039.085813,0.28,-0.87,0.41,-39.53,-54.76,-86.78,1.0
1773566039.1726766,0.23,-1.09,0.34,-39.63,83.59,-48.89,1.17
1773566039.2857878,0.04,-0.99,0.18,18.12,132.63,2.52,1.0
1773566039.389009,-0.25,-0.74,-0.11,-56.82,-10.05,7.89,0.79
1773566039.486783,-0.15,-0.59,-0.37,-116.14,-221.91,75.79,0.71
1773566039.587623,0.25,-1.92,-0.33,49.34,-364.53,22.53,1.96
1773566039.6958172,0.46,-1.64,0.23,9.25,-271.53,192.26,1.72
1773566039.8207352,-0.03,-0.23,0.38,-18.73,-96.84,-32.98,0.45
1773566039.909952,0.24,-0.05,0.52,14.99,61.79,-118.41,0.58
1773566040.0119455,0.82,-1.43,0.83,188.78,443.82,-244.61,1.85
1773566040.106548,0.24,-1.91,-0.19,-41.5,368.11,-60.32,1.94
1773566040.2101564,-0.35,-0.17,-0.62,-128.03,36.09,118.82,0.73
1773566040.3090987,-0.3,0.07,-0.39,95.16,-215.53,-24.81,0.5
1773566040.4250343,0.38,-2.0,0.12,-64.23,-407.97,147.94,2.04
1773566040.521125,0.26,-1.17,0.37,-41.31,-298.08,81.21,1.25
1773566040.625555,0.05,0.08,0.5,-15.08,-51.8,0.43,0.51
1773566040.737521,0.2,-0.21,0.27,94.82,180.92,-33.15,0.4
1773566040.8381853,0.99,-2.0,0.64,-30.15,375.66,2.17,2.32
1773566040.9432802,0.13,-1.02,-0.3,-191.05,251.4,-54.35,1.07
1773566041.042734,-0.31,-0.24,-0.53,53.69,22.08,47.4,0.66
1773566041.141807,-0.03,-0.41,-0.29,90.93,-227.97,-32.52,0.51
1773566041.2553823,0.54,-2.0,-0.19,-7.53,-310.7,96.98,2.08
1773566041.349666,0.24,-0.78,0.16,-72.95,-295.3,-5.02,0.83
1773566041.4594078,0.15,-0.12,0.23,-15.21,-194.0,-39.89,0.3
0.0,0.0,0.0,0.0,0.0,0.0,0.0,0.0
1773566042.5395627,0.35,-0.76,0.21,115.8,-231.79,-194.46,0.86
1773566042.6538954,0.34,-1.58,0.41,-128.46,-58.75,2.03,1.67
1773566042.75373,-0.01,-1.4,0.16,156.11,117.56,39.37,1.41
1773566042.854691,-0.39,-0.47,-0.46,82.79,-68.66,-50.23,0.76
1773566042.9591205,0.03,-0.63,-0.44,-17.45,-352.28,120.5,0.77
1773566043.0549214,0.47,-2.0,-0.26,-27.34,-510.57,-62.26,2.07
1773566043.162549,0.61,-1.08,0.41,-104.64,-310.64,190.0,1.31
1773566043.273245,0.08,-0.05,0.63,-61.8,-207.33,-116.14,0.64
1773566043.3713262,0.47,-0.3,0.5,73.59,214.7,-167.39,0.75
1773566043.4770916,1.44,-2.0,0.32,16.61,445.01,-35.83,2.49
1773566043.5735872,0.12,-0.77,-0.6,-69.97,202.05,42.53,0.98
1773566043.6805067,-0.57,-0.11,-0.5,42.21,19.1,139.07,0.76
1773566043.7744043,0.38,-1.23,-0.28,23.63,-445.7,72.81,1.32
1773566043.8917344,0.5,-2.0,0.5,46.24,-253.82,254.15,2.12
1773566043.9959702,0.0,0.27,0.65,-110.4,-152.29,12.56,0.71
1773566044.0941415,0.03,-0.18,0.27,22.44,169.74,28.53,0.32
1773566044.1927557,1.27,-1.97,0.69,49.8,431.77,-171.25,2.45
1773566044.303852,0.29,-1.03,-0.29,-254.26,247.95,19.07,1.11
1773566044.404192,-0.45,-0.1,-0.59,-21.77,-16.64,116.93,0.75
0.0,0.0,0.0,0.0,0.0,0.0,0.0,0.0
1773566046.2582252,0.06,-0.89,0.14,35.65,-65.01,-11.25,0.9
1773566046.37336,0.07,-0.78,0.2,62.99,-24.55,-99.53,0.8
1773566046.471671,0.36,-0.94,0.62,35.62,75.4,-210.69,1.18
1773566046.6028235,0.22,-1.24,0.3,-76.24,160.87,76.32,1.29
1773566046.6799436,-0.22,-0.82,-0.17,-27.88,32.63,17.83,0.86
1773566046.7862422,-0.11,-0.43,-0.32,-33.86,-158.9,4.32,0.55
1773566046.888775,0.19,-1.95,-0.34,-28.89,-321.5,70.98,1.99
1773566046.993695,0.72,-1.54,0.15,73.16,-387.19,141.98,1.7
1773566047.089329,0.11,-0.15,0.45,6.99,-167.95,9.36,0.49
1773566047.206528,0.32,0.14,0.55,-61.94,-23.53,-16.17,0.65
1773566047.3027897,0.56,-1.69,0.68,-1.34,315.89,-127.68,1.91
1773566047.4037654,0.36,-1.47,-0.31,65.16,398.73,-16.0,1.55
1773566047.504939,-0.3,-0.07,-0.65,-51.98,51.07,184.88,0.72
1773566047.6228435,-0.45,-0.24,-0.44,-52.29,-270.31,-133.5,0.67
1773566047.716941,1.15,-2.0,0.0,24.67,-403.85,-37.54,2.31
1773566047.818175,0.23,-1.04,0.45,-62.46,-305.74,107.71,1.16
1773566047.921708,0.07,0.11,0.43,-25.24,-114.55,5.21,0.45
1773566048.0336244,0.39,-0.28,0.69,102.37,93.77,-88.44,0.84
1773566048.120502,0.99,-2.0,0.24,-8.75,445.51,-98.34,2.25
1773566048.228366,-0.07,-0.63,-0.52,-136.38,281.43,132.32,0.82
1773566048.3269746,-0.51,0.03,-0.59,98.4,46.41,52.18,0.78
1773566048.4404352,0.07,-0.73,-0.24,-92.15,-300.63,39.82,0.77
1773566048.542457,0.44,-2.0,0.02,23.04,-306.96,174.88,2.05
1773566048.6404622,0.19,-0.37,0.29,-30.27,-203.41,-64.47,0.51
0.0,0.0,0.0,0.0,0.0,0.0,0.0,0.0
1773566050.722397,0.48,-1.45,0.01,7.44,-132.53,69.02,1.52
1773566050.731954,0.26,-1.12,0.06,-54.06,-185.95,138.3,1.15
1773566050.930519,0.24,-0.59,0.08,23.73,-234.41,47.59,0.64
1773566050.938667,0.23,-0.46,0.27,49.3,-120.41,40.56,0.58
1773566051.0420744,0.09,-0.92,0.48,-4.26,-107.48,-95.39,1.04
1773566051.1413393,0.22,-1.13,0.48,-46.27,108.08,-124.02,1.25
1773566051.239419,0.36,-1.02,0.3,0.72,206.52,8.66,1.12
1773566051.3469796,0.11,-0.94,0.07,-84.11,184.08,81.3,0.94
1773566051.440364,-0.02,-0.53,-0.05,2.98,114.37,28.29,0.54
1773566051.552424,0.05,-0.75,0.01,-27.24,-34.73,-38.93,0.76
1773566051.6580882,0.12,-1.5,0.05,-100.66,-136.31,-28.87,1.51
1773566051.753161,0.15,-1.4,-0.04,-34.21,-177.6,50.37,1.41
1773566051.8699548,0.13,-0.72,0.07,112.0,-154.53,78.29,0.73
1773566051.96996,0.07,-0.41,0.24,65.02,-181.16,39.14,0.48
1773566052.0670006,0.27,-0.78,0.44,7.42,-122.5,-78.43,0.93
1773566052.1699262,0.36,-1.06,0.56,-47.76,56.96,-95.7,1.25
1773566052.2752535,0.39,-1.24,0.28,-41.08,228.88,-43.19,1.33
1773566052.3747356,0.25,-0.74,0.06,-31.54,223.85,29.88,0.78
1773566052.4875636,-0.04,-0.46,-0.15,-41.77,130.34,36.43,0.48
1773566052.5923882,-0.1,-0.99,-0.14,-124.26,-45.86,-69.63,1.0
1773566052.693432,0.14,-1.4,0.02,-57.44,-170.0,-26.76,1.41
1773566052.7909167,0.34,-1.55,0.01,11.04,-153.16,165.27,1.58
1773566052.8958993,0.26,-0.76,0.08,76.09,-163.34,145.02,0.81
1773566053.0055106,0.08,-0.13,0.15,47.71,-93.57,105.6,0.22
1773566053.1078677,-0.02,-0.39,0.28,-46.47,-80.92,-17.13,0.48
0.0,0.0,0.0,0.0,0.0,0.0,0.0,0.0
1773566056.7652164,0.44,-0.99,-0.01,120.58,-194.4,112.34,1.08
1773566056.8175514,0.32,-0.96,-0.07,85.8,-251.37,144.76,1.02
1773566056.9196296,0.24,-0.87,0.03,90.18,-260.75,61.4,0.9
1773566057.025828,0.29,-0.8,0.21,94.73,-202.32,27.56,0.88
1773566057.1176274,0.51,-0.89,0.47,63.36,-132.73,-76.81,1.13
1773566057.2299876,0.57,-0.92,0.4,16.12,-13.05,30.63,1.15
1773566057.334412,0.59,-1.23,0.46,30.73,-14.05,-21.7,1.44
1773566057.4394612,0.18,-0.77,0.06,5.92,-5.66,139.6,0.79
1773566057.539735,-0.2,-0.35,-0.3,-58.76,-177.16,109.51,0.5
1773566057.641418,0.2,-0.87,-0.31,-45.76,-435.39,67.53,0.95
1773566057.750855,0.81,-2.0,0.39,97.07,-411.85,86.2,2.19
1773566057.8502028,0.38,-0.64,0.5,-17.91,-231.24,75.74,0.89
1773566057.9569182,0.17,-0.12,0.49,7.07,-18.02,-173.79,0.53
1773566058.0518882,0.64,-0.77,0.65,37.3,329.6,-138.49,1.19
1773566058.1584468,0.6,-1.59,0.24,-26.29,470.85,-18.09,1.72
1773566058.2680695,0.14,-0.65,-0.5,-209.02,94.18,81.3,0.83
1773566058.3663058,-0.33,-0.41,-0.46,-123.31,-209.89,84.64,0.7
1773566058.4683526,0.31,-1.58,0.21,107.73,-346.35,-14.95,1.62
1773566058.5741694,0.59,-1.17,0.55,27.25,-178.44,207.71,1.42
1773566058.6830344,-0.01,-0.11,0.47,-44.72,-55.18,-27.68,0.48
1773566058.795864,0.59,-0.45,0.68,72.64,190.11,-212.28,1.01
1773566058.8921652,0.73,-2.0,0.38,-65.11,418.38,82.53,2.16
1773566058.9910743,0.0,-0.79,-0.19,-58.53,175.53,5.28,0.82
1773566059.0893238,-0.23,-0.22,-0.43,-18.69,-49.13,73.5,0.54
0.0,0.0,0.0,0.0,0.0,0.0,0.0,0.0
1773566060.464389,0.61,-1.92,1.01,-2.9,-55.53,-106.64,2.26
1773566060.564245,-0.04,-1.13,0.12,-59.3,42.93,117.82,1.14
1773566060.65719,-0.48,-0.44,-0.32,-23.19,-131.97,108.04,0.73
1773566060.7689545,0.33,-0.6,-0.49,6.75,-328.29,49.94,0.84
1773566060.8712962,0.67,-2.0,-0.12,-26.76,-430.08,110.99,2.11
1773566060.969185,0.23,-0.51,0.5,-57.85,-352.78,-72.63,0.76
1773566061.0750628,0.15,-0.07,0.49,-73.56,-113.92,-154.9,0.52
1773566061.17126,0.5,-1.18,0.73,102.73,263.53,-106.49,1.48
1773566061.2788897,0.79,-1.49,-0.13,57.92,345.54,51.3,1.69
1773566061.3755689,-0.0,-0.5,-0.33,-76.55,-3.34,92.24,0.6
1773566061.488022,-0.18,-0.26,-0.51,-8.24,-226.14,183.28,0.6
1773566061.5962808,0.5,-1.93,-0.04,107.16,-510.41,56.78,2.0
1773566061.6948998,0.42,-1.44,0.69,-55.13,-341.56,106.44,1.65
1773566061.804076,0.1,0.37,0.83,-42.6,-91.99,-57.25,0.92
1773566061.9006574,0.44,-0.64,0.54,-1.79,243.85,64.85,0.94
1773566062.0111675,1.18,-1.89,0.35,-5.33,469.85,-24.31,2.26
1773566062.117279,0.03,-0.65,-0.47,-252.4,131.6,69.1,0.8
1773566062.2072823,-0.4,-0.02,-0.47,0.15,-31.37,63.22,0.61
1773566062.3167894,0.13,-1.13,-0.1,59.94,-325.59,84.29,1.14
1773566062.4395812,0.62,-1.8,0.52,-59.89,-349.7,108.27,1.97
1773566062.5289457,0.01,-0.34,0.5,-21.77,-235.77,5.98,0.6
0.0,0.0,0.0,0.0,0.0,0.0,0.0,0.0
1773566064.1320782,0.14,-0.98,0.13,65.85,-98.63,-46.7,1.0
1773566064.235296,0.2,-0.82,0.34,64.6,-23.8,-56.57,0.91
1773566064.3356607,0.46,-1.07,0.5,-9.73,71.85,-86.21,1.27
1773566064.437142,0.39,-1.3,0.35,-29.07,147.82,-32.54,1.4
1773566064.5518038,-0.12,-0.75,-0.04,-5.27,51.3,23.74,0.76
1773566064.66998,-0.13,-0.32,-0.32,-51.59,-245.86,58.66,0.47
1773566064.755988,0.49,-1.57,-0.05,84.82,-329.33,176.08,1.65
1773566064.8540044,0.73,-1.47,0.47,99.82,-226.9,242.06,1.71
1773566064.9685953,0.08,-0.04,0.47,-11.16,-146.9,1.33,0.48
1773566065.0844235,0.12,-0.13,0.74,-134.21,64.15,-141.82,0.76
1773566065.168597,0.61,-1.2,0.69,30.89,330.41,-201.48,1.51
1773566065.2685237,0.57,-1.45,-0.1,-2.23,328.85,-2.6,1.56
1773566065.379442,-0.18,-0.45,-0.34,-93.04,37.11,80.0,0.59
1773566065.484362,-0.33,0.01,-0.41,-43.76,-116.49,193.97,0.53
1773566065.5844154,0.42,-2.0,0.14,-4.81,-353.34,-28.96,2.05
1773566065.6922722,0.35,-1.3,0.47,-8.79,-268.53,58.93,1.42
1773566065.7851207,-0.03,0.27,0.48,47.37,-107.28,-95.62,0.55
1773566065.8877182,0.65,-0.4,0.65,37.62,167.05,-92.26,1.0
1773566066.0018282,0.94,-2.0,0.36,-119.3,383.14,8.38,2.24
1773566066.1112792,0.03,-0.91,-0.3,-108.37,185.48,-9.45,0.95
1773566066.204133,-0.34,-0.12,-0.52,24.93,-36.95,79.6,0.63
1773566066.3054972,0.03,-0.52,-0.33,64.99,-302.52,128.21,0.61
1773566066.40004,0.89,-2.0,0.4,51.89,-339.57,240.58,2.23
1773566066.5034533,0.27,-0.68,0.23,60.7,-333.27,-50.78,0.76
1773566066.6168227,0.22,0.09,0.45,32.6,-99.54,114.29,0.51
1773566066.7169683,0.21,-0.87,0.71,50.78,-31.42,42.82,1.14
0.0,0.0,0.0,0.0,0.0,0.0,0.0,0.0
1773566068.4706163,-0.01,-0.39,-0.31,-112.21,8.44,57.39,0.49
1773566068.5700984,-0.23,-0.38,-0.37,-68.87,-194.75,124.87,0.58
1773566068.6824474,0.29,-2.0,0.08,47.95,-352.78,83.79,2.02
1773566068.7827792,0.24,-1.08,0.53,30.27,-225.01,35.79,1.23
1773566068.893588,0.12,0.05,0.49,-84.81,29.76,-24.18,0.51
1773566068.9981265,0.36,-0.62,0.53,73.53,183.83,-167.8,0.89
1773566069.102009,0.93,-2.0,0.58,-80.79,336.09,-42.89,2.28
1773566069.2020078,-0.01,-0.85,-0.3,-193.31,176.5,27.66,0.9
1773566069.302338,-0.32,-0.03,-0.46,10.6,-20.49,83.8,0.56
1773566069.4084263,0.11,-0.65,-0.26,32.64,-276.76,56.78,0.71
1773566069.5035105,0.9,-2.0,0.43,46.08,-305.28,147.36,2.24
1773566069.618121,0.1,-0.49,0.22,3.22,-226.9,1.22,0.55
1773566069.7181146,0.02,0.19,0.37,152.79,-16.12,74.18,0.42
1773566069.8186848,0.66,-1.05,1.11,33.79,82.87,-55.54,1.66
1773566069.9279356,0.62,-1.32,0.27,-94.08,54.55,-40.52,1.48
1773566070.0318418,-0.3,-0.5,-0.29,-166.26,-48.57,176.34,0.65
0.0,0.0,0.0,0.0,0.0,0.0,0.0,0.0
1773566082.5095122,-0.02,-0.85,0.17,12.18,10.58,-45.74,0.87
1773566082.6115036,0.01,-0.72,0.14,-25.3,-17.27,-63.37,0.74
1773566082.7152736,0.08,-0.57,0.06,-16.09,-6.52,-37.65,0.58
1773566082.819502,0.12,-0.56,0.03,-10.82,0.96,-90.28,0.58
1773566082.921348,0.16,-0.88,0.12,-36.15,-25.66,-71.31,0.9
1773566083.024557,0.23,-1.09,0.09,-23.98,-12.02,-16.57,1.12
1773566083.1284342,0.34,-1.17,0.06,53.22,1.89,20.99,1.22
1773566083.2319045,0.46,-1.06,0.16,8.82,5.56,11.34,1.16
1773566083.336506,0.43,-1.16,0.31,-5.44,25.43,66.43,1.27
1773566083.4395006,0.73,-0.54,0.33,-49.82,113.68,-17.97,0.97
1773566083.5405853,0.51,-0.93,0.05,92.53,-176.4,-502.2,1.06
1773566083.645465,0.07,-1.38,0.04,-141.89,-10.61,265.5,1.38
1773566083.7485535,0.21,-1.03,-0.02,40.49,-30.89,30.41,1.05
1773566083.8515012,0.41,-0.58,0.12,62.64,40.35,21.59,0.72
1773566083.9536862,0.09,-1.02,0.1,-10.58,-21.36,20.35,1.03
1773566084.0585065,0.24,-1.0,0.15,18.23,-24.52,-58.0,1.04
1773566084.162652,0.28,-0.89,0.24,5.71,-4.79,-17.28,0.96
1773566084.2647,0.2,-0.92,0.23,-7.48,-8.43,-1.71,0.96
0.0,0.0,0.0,0.0,0.0,0.0,0.0,0.0
1773566089.2896378,-0.14,-0.84,0.25,-2.6,-1.05,-29.88,0.89
1773566089.3925965,-0.11,-0.82,0.11,-28.2,-1.39,-18.43,0.84
1773566089.4974766,-0.01,-0.8,0.07,-22.69,-17.34,-29.44,0.81
1773566089.599038,0.08,-0.73,0.08,-16.86,-10.61,10.84,0.74
1773566089.7034404,-0.05,-0.86,0.04,-41.24,-8.49,36.01,0.86
1773566089.8064988,0.03,-0.92,0.05,-41.56,-22.53,5.95,0.92
1773566089.9095926,-0.05,-0.88,0.01,-72.66,-32.5,16.3,0.89
1773566090.0140889,-0.17,-0.84,-0.1,-56.9,26.75,25.1,0.86
1773566090.1156693,-0.47,-1.17,-0.08,24.87,-39.31,114.0,1.27
1773566090.2197015,0.25,-1.25,0.0,121.71,-48.58,-38.79,1.28
1773566090.321999,0.25,-0.78,0.07,-85.02,-41.7,322.53,0.82
1773566090.4255466,-0.43,-0.86,0.36,320.9,-224.86,205.36,1.03
1773566090.53078,-0.83,-1.06,0.47,-179.95,-20.76,-239.39,1.42
1773566090.633036,-0.35,-0.88,0.09,20.76,37.25,113.25,0.95
1773566090.7353363,-0.45,-0.77,-0.01,-40.81,-12.38,-9.8,0.89
1773566090.8376484,-0.54,-0.79,0.06,-5.36,3.86,19.22,0.95
1773566090.941376,-0.61,-0.91,0.09,-35.97,13.94,39.3,1.1
1773566091.045694,-0.55,-0.89,0.05,6.5,-36.18,-15.42,1.05
1773566091.147833,-0.43,-0.78,0.08,64.85,-54.41,-60.87,0.89
1773566091.251561,-0.4,-0.76,0.19,27.88,-12.12,-60.66,0.88
1773566091.3546252,-0.49,-0.91,0.17,-9.73,-13.1,-24.75,1.05
1773566091.457438,-0.4,-0.87,0.16,-1.76,-16.92,-27.65,0.97
1773566091.5606058,-0.34,-0.85,0.17,7.66,-28.87,-22.84,0.93
1773566091.6643386,-0.38,-0.91,0.14,5.68,-45.02,-52.0,1.0
0.0,0.0,0.0,0.0,0.0,0.0,0.0,0.0
1773566094.660184,-0.17,-0.94,0.05,-2.0,-10.49,-36.64,0.96
1773566094.6971405,-0.13,-0.94,0.09,2.55,-22.37,-31.27,0.95
1773566094.8640397,-0.12,-0.92,0.09,-21.47,-36.92,-28.58,0.93
1773566094.9019723,-0.12,-0.85,-0.08,-12.27,6.46,-43.3,0.86
1773566095.0698094,-0.07,-0.8,-0.01,-26.41,-26.32,-47.25,0.81
1773566095.1081953,-0.05,-0.92,-0.03,-19.02,-15.15,13.57,0.92
1773566095.2119982,0.02,-0.84,-0.05,-24.63,-18.03,60.08,0.84
1773566095.3145924,0.02,-0.73,-0.07,-62.52,-9.73,67.54,0.74
1773566095.4175663,-0.01,-0.77,-0.12,-104.34,8.52,43.16,0.78
1773566095.5216742,-0.14,-0.95,-0.25,-19.65,-24.75,45.53,1.0
1773566095.6247427,-0.14,-0.99,-0.15,24.53,-31.34,77.8,1.01
1773566095.7274878,-0.27,-1.26,0.49,158.99,-59.88,-16.83,1.38
1773566095.8307545,-0.01,-0.9,0.02,138.69,-74.15,-5.27,0.9
1773566095.9345412,-0.07,-1.07,0.3,53.95,-86.46,-157.73,1.12
1773566096.0364888,-0.08,-1.09,0.39,94.79,54.79,148.04,1.16
1773566096.141662,-0.04,-0.86,0.01,-66.43,9.71,75.53,0.86
1773566096.243686,-0.03,-0.91,0.03,95.45,-25.15,30.0,0.91
1773566096.347378,-0.27,-0.93,0.3,60.79,-33.16,-70.34,1.01
1773566096.451013,-0.2,-1.0,0.29,-31.91,-26.17,-6.11,1.06
1773566096.5524852,-0.18,-1.02,0.25,-99.8,-39.66,11.3,1.06
1773566096.657683,-0.14,-0.85,0.12,9.13,-23.48,28.3,0.87
1773566096.7596877,-0.13,-0.81,0.34,61.97,-19.62,-40.69,0.89
1773566096.8639731,-0.14,-0.9,0.36,-2.87,-11.3,13.59,0.98
0.0,0.0,0.0,0.0,0.0,0.0,0.0,0.0
1773566099.4716334,-0.04,-0.88,-0.0,61.14,26.73,-53.01,0.89
1773566099.5214667,-0.06,-0.88,0.06,11.85,-9.45,-38.29,0.88
1773566099.6214254,-0.15,-0.75,0.01,-22.12,-19.21,22.08,0.76
1773566099.7266948,-0.06,-0.62,0.01,42.64,-16.61,-32.84,0.62
1773566099.8303063,-0.04,-0.68,0.02,-55.66,-15.02,-60.84,0.68
1773566099.933619,0.08,-0.76,0.01,-78.86,16.5,-28.44,0.76
1773566100.036299,0.18,-0.88,-0.13,-38.86,-18.41,-108.06,0.9
1773566100.138968,0.4,-1.4,-0.08,61.18,-34.4,-23.13,1.46
1773566100.24267,0.51,-1.28,0.11,61.8,-20.49,-5.57,1.38
1773566100.3467476,-0.02,-1.26,0.32,88.82,-82.82,-440.6,1.3
1773566100.4466429,0.66,-0.99,0.33,113.86,38.29,-153.88,1.23
1773566100.5564792,0.45,-0.86,0.31,80.53,90.35,238.15,1.02
1773566100.6536982,0.0,-0.82,0.02,-82.14,42.46,246.11,0.82
1773566100.7610545,-0.09,-0.84,-0.02,-10.06,-18.05,43.34,0.85
1773566100.8633063,-0.14,-0.97,0.27,50.85,-32.93,-85.27,1.02
1773566100.9645212,-0.0,-1.12,0.21,-29.13,-30.61,15.68,1.14
1773566101.0665722,0.01,-0.95,0.11,-67.88,-11.73,27.71,0.96
1773566101.1717398,0.09,-0.9,0.12,20.63,-13.89,-14.4,0.91
1773566101.2737164,-0.03,-1.02,0.21,72.69,23.1,-19.99,1.05
0.0,0.0,0.0,0.0,0.0,0.0,0.0,0.0
1773566104.718673,0.09,-0.7,0.05,-34.4,-76.73,57.1,0.71
1773566104.8187158,0.01,-0.64,-0.01,-78.89,-138.31,27.91,0.64
1773566104.9223702,0.02,-0.64,-0.08,-84.24,-146.14,-15.63,0.65
1773566105.0255685,0.1,-0.85,-0.15,-120.2,-117.86,27.43,0.87
1773566105.1277716,0.16,-1.18,-0.22,-85.04,-107.66,30.9,1.21
1773566105.2294009,0.25,-0.95,-0.18,90.26,-158.5,17.27,1.0
1773566105.332471,0.43,-1.31,0.15,194.58,-113.02,24.01,1.38
1773566105.4366643,-0.42,-1.25,0.65,147.45,-106.93,-207.65,1.47
1773566105.5387204,0.28,-1.45,0.31,-59.85,56.98,71.4,1.51
1773566105.6414502,0.07,-1.13,0.12,-99.66,77.71,116.73,1.14
1773566105.7484577,0.24,-0.82,-0.0,-25.5,-25.33,-98.14,0.85
1773566105.8495064,0.04,-0.91,-0.1,102.98,-32.28,20.55,0.92
1773566105.949777,-0.06,-0.95,0.25,152.84,-45.5,-86.02,0.99
1773566106.0556767,-0.07,-1.05,0.23,21.77,1.63,9.46,1.08
1773566106.1568086,0.02,-1.09,0.19,-117.65,4.09,5.1,1.1
1773566106.2637365,0.14,-0.9,0.09,-93.59,-57.95,-14.83,0.91
1773566106.3676548,0.12,-0.87,0.17,68.56,-25.21,53.94,0.89
1773566106.470447,-0.02,-1.0,0.23,62.23,-12.08,-12.06,1.02
0.0,0.0,0.0,0.0,0.0,0.0,0.0,0.0
1773566120.6998937,-0.0,-0.96,0.05,10.76,-62.14,-98.08,0.97
1773566120.8025856,0.05,-1.09,0.07,16.61,-63.45,-32.43,1.09
1773566120.905327,0.09,-1.15,0.14,94.24,-24.43,-44.03,1.16
1773566121.0088902,0.35,-1.16,0.45,182.15,49.51,-144.29,1.29
1773566121.11789,0.36,-0.75,0.14,-137.16,181.97,170.11,0.84
1773566121.216703,0.1,-0.92,-0.07,-132.35,115.14,109.95,0.93
1773566121.3199143,0.01,-0.73,-0.14,-46.32,-14.32,20.0,0.74
1773566121.4222476,-0.02,-0.75,-0.08,40.14,-103.25,-61.37,0.76
1773566121.5295904,-0.0,-1.35,-0.01,14.66,-132.75,-39.71,1.35
1773566121.6295202,-0.02,-1.45,0.04,7.22,-187.68,-8.54,1.45
1773566121.7389133,0.11,-0.8,-0.15,-38.55,-160.66,144.0,0.83
1773566121.836923,0.07,-0.8,-0.04,87.11,-209.97,11.97,0.8
1773566121.9389634,0.15,-0.65,0.19,56.38,-162.23,-72.79,0.7
1773566122.0460124,0.26,-1.05,0.34,-31.16,15.59,-100.76,1.13
1773566122.1449797,0.24,-1.21,0.25,-48.75,125.39,-74.47,1.26
1773566122.261606,0.36,-1.1,0.23,-26.69,124.47,-63.28,1.18
1773566122.3618164,0.22,-0.69,0.17,-29.36,129.66,0.24,0.75
1773566122.4590745,0.25,-0.79,0.06,-97.45,80.06,73.85,0.84
1773566122.568891,0.01,-0.89,-0.11,-103.63,-7.7,41.74,0.9
1773566122.664123,0.1,-1.12,-0.12,28.2,-94.89,-58.43,1.13
1773566122.7687795,0.19,-1.44,0.01,109.4,-202.49,32.37,1.45
1773566122.8697648,0.24,-0.86,-0.04,-42.99,-143.47,109.11,0.89
1773566122.9719489,0.08,-0.83,0.04,1.48,-87.94,54.17,0.84
0.0,0.0,0.0,0.0,0.0,0.0,0.0,0.0
1773566124.458457,0.08,-0.89,0.22,0.43,-36.02,-136.75,0.92
1773566124.5326262,0.12,-1.35,0.25,-10.41,59.04,-104.52,1.38
1773566124.6337464,0.32,-1.24,0.09,208.63,32.24,-35.91,1.28
1773566124.7337768,0.46,-0.76,-0.06,-29.44,-46.78,132.12,0.89
1773566124.8326535,0.16,-0.8,-0.22,-39.74,-189.22,236.7,0.84
1773566124.9366736,-0.14,-0.61,0.11,181.48,-462.79,-258.37,0.64
1773566125.0396943,0.61,-1.11,0.66,-106.11,-158.7,92.79,1.43
1773566125.1482418,0.12,-1.28,0.18,70.31,-100.17,102.4,1.3
1773566125.2494066,0.69,-0.68,0.15,109.01,-95.08,27.3,0.98
1773566125.3485785,0.26,-0.81,0.17,-51.16,66.32,111.68,0.87
1773566125.452241,0.02,-0.33,0.08,-143.36,26.41,-26.93,0.34
1773566125.556836,0.38,-1.03,0.19,-75.11,63.86,-217.79,1.11
1773566125.666752,0.28,-1.65,0.14,-31.42,176.43,-22.92,1.68
1773566125.7625463,0.2,-1.26,0.21,170.98,210.88,56.04,1.3
1773566125.8718562,0.32,-0.54,0.22,-66.52,108.09,-23.94,0.67
1773566125.970094,0.19,-0.58,0.11,-147.28,78.78,23.34,0.62
1773566126.072839,0.18,-0.75,0.04,-75.18,-13.33,-28.75,0.77
1773566126.1767635,0.14,-1.0,-0.04,44.75,-99.8,-4.61,1.01
1773566126.2818751,0.22,-1.37,0.13,82.24,-173.41,-7.34,1.39
1773566126.3857996,0.24,-1.15,0.12,-7.04,-145.53,60.04,1.18
1773566126.4849582,0.21,-0.94,0.05,9.73,-175.12,85.48,0.97
1773566126.5901823,0.16,-0.69,0.09,81.36,-144.43,83.94,0.71
1773566126.6948335,0.2,-0.72,0.24,5.74,-110.93,18.38,0.78
0.0,0.0,0.0,0.0,0.0,0.0,0.0,0.0
1773566128.34856,0.12,-0.67,-0.07,-38.63,-59.53,188.15,0.69
1773566128.4178195,0.07,-0.74,-0.11,35.33,-256.31,47.27,0.75
1773566128.5204644,0.21,-0.94,0.11,79.86,-324.9,-47.6,0.97
1773566128.6229546,0.32,-1.1,0.33,-28.86,-263.07,-38.06,1.2
1773566128.7282104,0.61,-1.14,0.15,-46.63,-287.5,8.63,1.3
1773566128.8302062,0.39,-0.81,-0.03,135.56,-299.24,111.07,0.9
1773566128.933022,0.38,-0.76,0.04,230.29,-316.9,88.52,0.85
1773566129.0379725,0.37,-0.68,0.22,168.84,-233.94,37.74,0.8
1773566129.1406903,0.39,-0.92,0.47,17.24,-91.07,-103.28,1.1
1773566129.2464082,0.52,-0.98,0.49,-39.5,39.92,-133.6,1.22
1773566129.3494065,0.65,-0.96,0.3,-121.59,60.93,42.09,1.2
1773566129.451873,0.34,-0.79,0.14,-37.45,0.29,182.53,0.87
1773566129.5589786,0.33,-0.67,0.09,74.31,-83.76,133.68,0.75
1773566129.6569252,0.34,-0.6,0.23,72.98,-157.21,-1.34,0.73
1773566129.7640803,0.31,-0.92,0.37,-43.02,-82.21,-30.57,1.04
1773566129.863847,0.31,-1.2,0.31,-94.9,-120.35,-15.85,1.28
1773566129.9688058,0.32,-1.36,0.15,104.17,-152.09,97.74,1.4
1773566130.071314,0.39,-0.8,0.03,-12.81,-146.44,260.35,0.89
1773566130.1737757,0.15,-0.66,0.08,79.47,-162.35,122.75,0.68
1773566130.2761924,0.28,-0.57,0.26,48.69,-150.75,-42.25,0.69
1773566130.3820584,0.35,-0.84,0.44,-46.31,-43.94,-74.14,1.01
1773566130.485021,0.31,-1.14,0.43,9.24,86.2,-118.6,1.26
1773566130.5880957,0.41,-1.01,0.43,-9.19,101.02,-152.38,1.17
1773566130.6948454,0.26,-0.75,0.3,-77.8,133.18,-5.73,0.85
1773566130.796266,0.23,-0.64,0.18,-93.19,76.58,45.28,0.7
1773566130.899967,0.17,-0.86,0.12,-32.26,8.58,38.64,0.88
1773566131.0025415,0.18,-1.03,0.16,-3.62,-79.05,-2.63,1.06
1773566131.1058154,0.26,-1.33,0.37,86.08,-127.39,56.38,1.41
1773566131.2097466,0.22,-0.9,0.17,-48.75,-86.02,130.53,0.94
1773566131.3125384,0.16,-0.87,0.19,8.23,-90.96,65.75,0.9
1773566131.414974,0.13,-0.65,0.21,-24.37,-75.89,47.95,0.7
0.0,0.0,0.0,0.0,0.0,0.0,0.0,0.0
1773566133.0160413,0.16,-0.69,0.3,7.77,101.45,8.11,0.77
1773566133.1200378,0.17,-0.88,0.19,-88.05,77.74,8.0,0.92
1773566133.222911,0.07,-0.87,0.09,-79.86,-25.59,-10.64,0.87
1773566133.325834,0.16,-0.84,0.01,74.5,-91.79,37.97,0.85
1773566133.4299023,0.0,-1.36,0.28,-3.36,-128.87,-13.48,1.39
1773566133.5325508,0.39,-1.23,0.33,-9.56,-107.91,-35.57,1.34
1773566133.6350725,0.27,-0.76,0.11,-33.79,-99.63,102.75,0.82
1773566133.740028,0.16,-0.79,0.08,88.44,-145.37,102.37,0.81
1773566133.8422894,0.16,-0.63,0.23,114.99,-124.46,7.95,0.69
1773566133.9459567,0.3,-0.78,0.5,29.57,-57.37,-101.08,0.97
1773566134.0530105,0.35,-0.97,0.55,-69.27,92.05,-87.33,1.17
1773566134.1558008,0.48,-1.08,0.48,-32.09,146.41,-171.48,1.28
1773566134.2616458,0.25,-0.56,0.38,-62.49,166.23,-54.78,0.72
1773566134.3601713,0.16,-0.71,0.27,-80.23,124.84,-5.88,0.78
1773566134.4645748,0.13,-0.89,0.24,-79.86,29.72,-29.54,0.93
1773566134.5681553,0.19,-1.02,0.28,19.01,-43.31,-47.94,1.08
1773566134.674026,0.36,-1.3,0.5,99.73,-61.51,-77.22,1.44
1773566134.7681117,0.27,-0.66,0.28,-58.32,17.88,153.39,0.76
1773566134.8674543,0.11,-0.74,0.35,20.2,24.64,48.56,0.83
1773566134.9791946,0.3,-0.65,0.43,7.73,24.46,-96.2,0.83
1773566135.0787456,0.22,-0.69,0.41,-42.72,93.66,-125.3,0.84
1773566135.1850808,0.42,-1.11,0.63,-2.03,121.92,-144.73,1.34
1773566135.2872276,0.44,-1.14,0.59,-28.2,189.77,-83.28,1.35
1773566135.3927162,0.25,-0.66,0.4,-86.73,236.82,-13.71,0.81
0.0,0.0,0.0,0.0,0.0,0.0,0.0,0.0
1773566137.4140246,0.1,-0.97,0.03,107.51,-291.45,57.16,0.98
1773566137.5279105,0.13,-0.85,0.17,70.38,-229.37,-17.66,0.88
1773566137.6341946,0.13,-0.96,0.17,22.95,-62.47,35.4,0.99
1773566137.7292118,0.18,-1.17,0.14,34.34,29.69,27.8,1.19
1773566137.8348494,0.29,-1.09,0.14,-84.67,-22.58,-15.68,1.14
1773566137.9345326,0.11,-0.77,0.08,-49.59,-39.68,45.04,0.78
1773566138.0445282,0.05,-0.93,0.17,104.75,-77.01,29.11,0.95
1773566138.155463,0.19,-0.72,0.22,93.97,-118.95,-53.57,0.78
1773566138.244625,0.1,-0.76,0.16,-15.39,-76.17,76.3,0.78
1773566138.3533878,0.03,-1.33,0.05,-34.2,-114.12,68.9,1.34
1773566138.4602077,0.24,-1.43,0.03,13.68,-240.37,-11.65,1.45
1773566138.565187,0.21,-0.87,0.01,51.07,-224.53,162.17,0.9
1773566138.6565852,0.1,-0.75,0.16,29.79,-203.99,45.3,0.77
1773566138.7783668,0.11,-0.48,0.27,-7.16,-146.52,-62.57,0.56
1773566138.8627543,0.24,-0.86,0.26,-44.21,-29.36,-56.96,0.93
1773566138.9671912,0.31,-1.77,0.38,-25.97,83.43,-93.21,1.84
1773566139.0944595,0.24,-0.9,0.23,-41.88,81.45,67.01,0.96
1773566139.1761887,0.12,-0.44,0.09,-39.76,60.08,149.82,0.47
1773566139.2777848,0.01,-0.54,-0.02,-27.88,2.37,86.63,0.54
1773566139.387021,-0.1,-1.11,-0.03,-61.65,-68.0,-99.31,1.11
1773566139.4807189,0.05,-1.18,0.07,-80.27,-117.48,-125.13,1.19
1773566139.5795617,0.38,-1.36,-0.06,34.38,-136.46,52.59,1.41
1773566139.692523,0.14,-0.77,-0.0,32.14,-158.6,53.71,0.79
1773566139.8003578,0.13,-0.59,0.11,88.02,-152.47,16.38,0.61
1773566139.8943884,0.2,-0.8,0.32,38.05,-85.68,-103.45,0.88
1773566140.0111616,0.26,-1.11,0.31,-22.72,92.88,-2.05,1.18
1773566140.1099224,0.28,-1.52,0.27,-14.78,150.87,-105.51,1.56
1773566140.2125282,0.19,-0.7,0.18,-34.5,163.88,17.72,0.75
1773566140.3164637,0.14,-0.63,0.08,-53.39,116.82,58.53,0.65
0.0,0.0,0.0,0.0,0.0,0.0,0.0,0.0
1773566144.7838504,0.16,-0.69,-0.07,-28.47,-2.75,-30.4,0.71
1773566144.895181,0.02,-0.69,-0.09,-44.55,-5.82,25.79,0.7
1773566145.0022962,0.13,-0.76,-0.02,37.48,-1.12,-43.82,0.77
1773566145.1079917,0.05,-1.13,-0.09,52.0,-17.22,14.72,1.13
1773566145.2077591,0.24,-1.3,0.13,112.27,-48.79,-18.73,1.33
1773566145.3148146,0.08,-1.52,-0.04,42.24,-15.7,51.45,1.52
1773566145.4102993,-0.25,-1.18,0.45,-118.89,-46.35,-170.55,1.29
1773566145.508052,0.24,-0.98,0.08,20.38,24.92,-54.5,1.01
1773566145.6114662,0.06,-0.95,-0.04,109.24,17.07,14.78,0.96
1773566145.7288404,0.14,-0.95,0.22,137.44,-43.89,-19.3,0.98
1773566145.8310015,0.03,-1.09,0.36,-0.26,-32.66,29.08,1.15
1773566145.9313605,0.03,-1.05,0.28,-44.05,-21.37,35.69,1.09
1773566146.031748,0.31,-1.23,0.36,-150.82,-55.36,-165.8,1.32
1773566146.1352146,0.75,-1.04,-0.03,-98.41,25.19,-14.64,1.28
1773566146.245622,0.23,-1.01,0.11,-94.23,-7.45,-122.38,1.04
1773566146.3486843,0.03,-1.48,0.06,-31.19,32.23,-29.86,1.49
0.0,0.0,0.0,0.0,0.0,0.0,0.0,0.0
1773566147.5136404,0.09,-0.49,0.07,-12.55,-14.5,-17.37,0.5
1773566147.6248066,0.04,-0.65,-0.04,-147.91,11.45,88.92,0.65
1773566147.7268088,0.04,-1.07,-0.08,12.44,73.92,16.72,1.07
1773566147.8423135,0.16,-1.27,-0.18,-110.4,17.91,-19.91,1.3
1773566147.9332647,0.32,-1.42,-0.04,194.92,-74.92,-22.09,1.46
1773566148.038923,0.34,-1.18,0.14,26.21,-33.63,103.97,1.24
1773566148.139851,0.42,-0.83,-0.13,104.9,-172.21,-136.58,0.94
1773566148.2404346,-0.41,-1.2,0.24,-165.76,77.54,137.54,1.29
1773566148.343459,0.09,-0.99,-0.13,-6.72,-50.28,-44.35,1.0
1773566148.4473605,0.16,-0.85,-0.03,81.18,14.21,-109.7,0.87
1773566148.55319,0.14,-0.85,0.21,114.5,-18.35,-65.54,0.89
1773566148.643497,0.15,-0.94,0.22,-39.15,-40.52,109.89,0.98
1773566148.7599983,-0.01,-1.23,0.13,-130.24,-4.7,-3.51,1.23
1773566148.8656378,0.48,-1.36,0.17,-20.27,-30.96,-105.16,1.45
1773566148.9614022,0.7,-1.08,0.09,-38.18,1.98,54.85,1.29
1773566149.0615306,0.08,-0.97,-0.08,-80.24,21.79,-53.73,0.98
1773566149.1641908,0.11,-1.17,-0.07,-14.38,17.21,-84.05,1.17
1773566149.276663,0.03,-1.08,-0.09,13.39,36.49,-27.96,1.09
1773566149.3787518,0.09,-0.67,-0.09,-28.58,-11.05,43.3,0.68
0.0,0.0,0.0,0.0,0.0,0.0,0.0,0.0
1773566155.152652,-0.93,0.8,0.12,-156.41,318.72,-82.31,1.23
1773566155.258161,-1.09,0.17,-0.31,-1.97,153.88,58.21,1.14
1773566155.3617542,-0.94,0.24,-0.08,-11.36,2.32,-164.35,0.97
1773566155.4653783,-0.93,-0.3,-0.11,58.24,-55.02,-25.6,0.98
1773566155.5607824,-0.99,0.18,-0.19,-4.79,-15.7,38.14,1.02
1773566155.6805053,-0.99,-0.11,-0.2,-1.79,-5.36,-20.32,1.01
1773566155.7607174,-0.94,-0.18,-0.14,-41.94,-1.18,-6.49,0.97
1773566155.8804426,-1.07,-0.01,-0.14,8.69,-32.58,8.03,1.08
1773566155.9809964,-1.0,0.02,-0.11,19.97,-12.99,-2.35,1.0
1773566156.0841842,-1.03,-0.02,-0.22,-7.39,4.37,19.37,1.06
1773566156.185202,-1.0,-0.1,-0.15,-14.52,-27.53,-4.75,1.02
1773566156.2941766,-1.0,-0.05,-0.1,-4.11,-14.28,8.61,1.01
1773566156.3961194,-0.97,0.04,-0.18,11.94,-14.4,6.43,0.98
1773566156.4924293,-0.98,-0.07,-0.15,-1.98,-16.17,-8.12,0.99
1773566156.5915153,-0.99,-0.05,-0.15,-7.97,-18.44,-4.37,1.01
1773566156.6952665,-0.99,-0.02,-0.14,2.06,-10.81,8.09,1.0
1773566156.7931635,-1.0,-0.0,-0.16,-7.57,-10.03,-0.31,1.01
1773566157.0199175,-1.0,0.0,-0.15,-7.47,-12.38,0.75,1.02
1773566157.0199175,-0.99,-0.03,-0.14,-5.86,-14.32,-10.92,1.0
1773566157.118165,-1.0,-0.02,-0.15,-4.27,-17.12,-12.25,1.01
1773566157.2106328,-0.99,-0.03,-0.16,-9.33,-8.15,7.88,1.01
1773566157.3256714,-1.0,-0.02,-0.16,-9.76,-16.03,-6.44,1.01
0.0,0.0,0.0,0.0,0.0,0.0,0.0,0.0
1773566162.1851137,-0.89,-0.34,-0.09,123.48,-28.31,14.32,0.96
1773566162.2783957,-0.98,-0.18,-0.09,-35.16,-11.47,40.58,1.0
1773566162.3925772,-1.0,-0.07,-0.08,-19.51,19.19,23.71,1.01
1773566162.4982097,-0.98,-0.06,-0.17,-5.97,22.03,34.4,1.0
1773566162.5921462,-1.02,-0.05,-0.2,-2.02,5.66,8.15,1.04
1773566162.7049942,-0.96,-0.09,-0.21,-1.37,-7.54,-4.4,0.99
1773566162.8075562,-0.97,-0.09,-0.21,-11.56,3.82,3.34,1.0
1773566162.9083414,-1.0,-0.06,-0.22,-4.73,-9.59,9.46,1.03
1773566163.0149386,-0.99,-0.05,-0.21,-5.59,-12.92,0.55,1.01
1773566163.106619,-0.99,-0.05,-0.21,2.72,-10.37,1.07,1.02
1773566163.2219963,-0.99,-0.05,-0.24,-4.21,-16.9,-6.87,1.01
1773566163.3086612,-0.98,-0.03,-0.22,-2.98,-20.63,-13.33,1.01
1773566163.424997,-1.0,-0.07,-0.22,-9.6,-7.02,-0.96,1.02
1773566163.518679,-0.99,-0.05,-0.21,-8.31,-12.81,-3.68,1.01
1773566163.6316726,-0.98,-0.05,-0.22,-1.6,-13.6,-6.79,1.01
1773566163.725107,-0.98,-0.07,-0.22,-4.64,-16.15,-14.47,1.01
1773566163.8271494,-0.99,-0.08,-0.21,-6.78,-12.6,-5.6,1.01
1773566163.9419465,-0.94,-0.06,-0.19,-7.01,-13.91,-4.98,0.96
0.0,0.0,0.0,0.0,0.0,0.0,0.0,0.0
1773566203.9163344,0.2,0.28,1.15,-14.96,9.72,53.68,1.2
1773566204.013538,0.04,0.03,0.81,-26.5,-17.42,73.54,0.81
1773566204.10578,0.14,-0.03,0.82,38.79,-7.83,42.0,0.84
1773566204.2203767,0.03,-0.03,0.87,14.35,-46.69,51.98,0.87
1773566204.320554,0.03,-0.1,0.95,2.53,-36.41,29.22,0.96
1773566204.4231963,0.18,-0.14,1.06,-23.53,-62.49,-16.92,1.08
1773566204.5272582,0.29,0.18,1.14,-9.66,-56.03,34.5,1.19
1773566204.621215,0.27,0.02,0.72,-62.14,-22.03,-12.7,0.77
1773566204.7361274,0.23,-0.08,0.75,57.79,16.29,18.85,0.79
1773566204.837654,0.24,-0.09,0.81,23.88,6.56,-8.4,0.85
1773566204.9410188,0.25,-0.13,0.86,-4.2,6.63,12.14,0.9
1773566205.0382552,0.23,-0.16,1.04,-14.96,-18.43,-1.34,1.07
1773566205.1540868,0.17,0.02,1.16,9.77,9.18,22.98,1.17
1773566205.2536633,0.02,0.05,0.85,-80.64,-36.52,17.51,0.85
1773566205.3535922,0.12,0.03,0.89,63.16,4.56,-66.34,0.9
1773566205.4574587,0.06,-0.13,0.74,-25.11,-17.19,-6.02,0.75
1773566205.567544,0.08,-0.09,0.86,1.97,-38.53,-15.13,0.87
1773566205.6665263,0.05,-0.24,0.97,-27.88,-30.78,5.02,1.0
1773566205.770431,0.14,-0.19,1.14,-35.47,19.1,-0.7,1.16
1773566205.8686576,0.38,0.17,0.96,-85.76,3.76,-75.96,1.05
1773566205.9702158,0.3,-0.02,0.84,51.83,-4.11,-28.6,0.89
1773566206.0751593,0.15,-0.14,0.75,-3.69,0.44,-41.22,0.78
1773566206.184109,0.26,-0.05,0.85,20.43,-8.47,-45.24,0.89
1773566206.2876706,0.13,-0.25,0.92,8.05,2.76,-4.63,0.96
1773566206.3869855,0.09,-0.2,1.13,-33.33,33.07,39.14,1.15
1773566206.4859073,0.06,0.36,0.99,-103.56,17.33,-30.9,1.06
1773566206.5904024,0.16,0.0,0.81,56.9,-18.66,-72.9,0.83
1773566206.697056,0.1,-0.04,0.82,5.24,-32.08,-24.06,0.83
0.0,0.0,0.0,0.0,0.0,0.0,0.0,0.0
1773566209.1507936,0.25,0.3,1.13,28.27,40.35,135.8,1.2
1773566209.3036242,0.04,-0.07,0.77,14.03,-30.61,159.75,0.77
1773566209.3519793,0.01,0.02,0.82,23.47,-37.31,82.67,0.82
1773566209.4513104,0.02,-0.08,0.93,83.34,-45.16,55.51,0.94
1773566209.5531397,-0.01,-0.04,0.99,-9.65,-27.51,13.43,0.99
1773566209.6544564,0.08,-0.19,0.96,-62.64,-44.12,-25.44,0.98
1773566209.7557952,0.18,-0.16,1.1,-23.82,-29.34,19.42,1.13
1773566209.8641202,0.35,0.24,0.99,-57.47,-30.53,4.56,1.08
1773566209.973556,0.3,0.02,0.82,-14.03,-26.46,-9.27,0.87
1773566210.0680373,0.16,-0.07,0.7,41.77,24.21,42.9,0.72
1773566210.1702452,0.23,-0.12,0.79,53.02,1.71,8.12,0.83
1773566210.2689538,0.19,-0.13,0.91,2.89,10.18,19.63,0.94
1773566210.386479,0.17,-0.11,1.21,9.95,-12.57,26.24,1.23
1773566210.4864097,0.18,0.4,1.19,-43.22,-9.56,-14.89,1.27
1773566210.587997,0.05,-0.01,0.8,1.97,-57.73,-47.28,0.8
1773566210.687889,0.08,-0.03,0.74,12.95,-32.44,-63.31,0.75
1773566210.8030434,0.02,-0.04,0.8,-20.37,-44.2,-38.66,0.8
1773566210.9031785,0.06,-0.1,1.0,-9.6,-29.53,-33.01,1.0
1773566211.0090504,0.19,-0.19,1.12,-47.73,-26.0,-36.99,1.15
1773566211.1021633,0.32,0.23,1.0,-86.46,-40.14,-20.78,1.07
1773566211.2102284,0.24,0.05,0.87,4.79,-31.5,-62.14,0.9
1773566211.3051815,0.21,-0.1,0.71,31.48,10.64,-26.86,0.75
1773566211.421343,0.25,-0.13,0.77,22.41,8.73,-35.85,0.82
1773566211.519709,0.29,-0.1,0.83,-23.04,2.58,-17.5,0.88
1773566211.618626,0.22,-0.13,1.07,18.76,15.28,-20.03,1.1
1773566211.7170944,0.28,0.39,1.32,-50.87,-23.16,-38.58,1.4
1773566211.8385694,0.0,0.01,0.84,14.84,-48.53,-20.17,0.84
1773566211.9224093,0.1,0.01,0.82,-18.89,-7.25,-36.41,0.82
1773566212.038252,0.05,-0.06,0.8,-15.71,-41.7,-40.09,0.8
1773566212.1362388,0.06,-0.07,0.98,9.45,-29.71,-74.38,0.99
1773566212.2343037,0.23,-0.15,1.02,-66.02,-45.86,-89.79,1.06
1773566212.353783,0.24,0.12,1.13,8.69,-41.89,-91.15,1.16
0.0,0.0,0.0,0.0,0.0,0.0,0.0,0.0
1773566214.6695054,0.34,-0.08,0.85,-26.31,-1.13,-15.94,0.92
1773566214.7548783,0.32,-0.17,0.91,8.5,-5.12,19.21,0.98
1773566214.8676047,0.3,-0.13,0.98,-23.45,9.92,16.49,1.03
1773566214.9688883,0.23,0.19,1.1,13.94,6.96,11.46,1.13
1773566215.0756812,0.07,0.07,0.78,-40.0,-16.9,31.19,0.78
1773566215.168232,0.18,-0.04,0.84,46.46,-0.09,15.62,0.86
1773566215.2726002,0.1,0.02,0.88,-9.39,-41.82,8.38,0.89
1773566215.370636,0.1,-0.11,0.89,6.99,-33.28,-0.83,0.9
1773566215.4858017,0.16,-0.12,0.98,-12.9,-43.41,-20.69,1.0
1773566215.596718,0.23,-0.2,1.06,-23.13,-17.33,20.23,1.1
1773566215.7025876,0.43,0.44,1.05,-81.56,-48.99,-22.87,1.22
1773566215.80062,0.33,-0.07,0.68,-24.67,-39.82,17.02,0.76
1773566215.9069097,0.2,-0.06,0.72,53.56,12.47,32.76,0.75
1773566216.0026605,0.3,-0.1,0.82,12.73,-4.7,-35.36,0.88
1773566216.1061127,0.32,-0.16,0.88,3.48,22.55,19.25,0.95
1773566216.2114708,0.34,-0.17,1.04,19.48,7.02,21.05,1.11
1773566216.3194947,0.32,0.24,1.17,2.26,0.58,17.59,1.24
1773566216.435635,0.07,0.18,0.83,-32.78,-20.41,32.73,0.85
1773566216.521301,0.17,-0.07,0.76,25.27,-11.91,-35.86,0.78
1773566216.626336,0.09,-0.02,0.84,2.79,-23.71,-13.74,0.84
1773566216.7355623,0.11,-0.07,0.94,-4.2,-29.82,-18.38,0.94
1773566216.8357573,0.12,-0.13,1.03,-40.89,-51.68,-32.67,1.05
1773566216.9371495,0.3,0.08,1.22,3.19,-43.86,16.0,1.26
1773566217.0356069,0.34,0.17,0.79,-89.36,-6.17,-48.08,0.87
1773566217.1364598,0.33,-0.05,0.72,53.02,-2.72,36.7,0.79
1773566217.2522354,0.22,-0.07,0.75,-5.19,-2.96,0.32,0.79
1773566217.3384151,0.3,-0.17,0.85,21.62,5.94,-8.9,0.92
1773566217.452164,0.27,-0.18,0.94,-18.56,-2.81,-10.37,0.99
1773566217.5563822,0.28,-0.26,1.04,8.95,27.07,43.43,1.11
1773566217.6626134,0.26,0.34,1.04,-78.41,-16.55,-13.57,1.13
1773566217.7524369,0.28,0.02,0.79,44.64,-28.82,-40.66,0.83
1773566217.863234,0.17,-0.04,0.8,20.11,-16.34,16.5,0.82
1773566217.9678698,0.12,-0.04,0.9,3.85,-32.21,25.17,0.9
1773566218.0691264,0.14,-0.12,0.91,-28.38,-21.65,-9.82,0.93
1773566218.1695173,0.26,-0.14,1.11,-3.65,-7.89,7.45,1.15
1773566218.2854004,0.33,0.15,1.02,-66.05,-8.92,0.01,1.08
1773566218.3842802,0.39,0.07,0.77,-38.69,-53.33,-59.25,0.87
1773566218.4853897,0.3,-0.06,0.79,82.41,12.18,24.67,0.85
1773566218.58538,0.28,-0.13,0.77,8.96,-3.7,-4.26,0.84
1773566218.6865408,0.3,-0.12,0.82,13.31,17.74,22.84,0.88
1773566218.8023317,0.29,-0.08,0.97,-11.71,-3.28,34.32,1.01
1773566218.9019313,0.34,0.07,1.17,66.9,26.23,38.87,1.22
1773566219.004312,0.01,0.08,0.81,-59.65,-21.85,41.97,0.81
1773566219.1019726,0.2,-0.01,0.87,59.85,-2.93,-17.85,0.89
1773566219.2035935,0.07,-0.04,0.79,-10.03,-13.85,29.59,0.79
1773566219.3042111,0.11,-0.04,0.93,5.62,-20.46,6.7,0.93
1773566219.4165728,0.17,-0.09,1.0,-55.91,-40.67,-13.39,1.02
1773566219.523445,0.3,-0.04,1.15,47.08,-17.12,49.04,1.19
0.0,0.0,0.0,0.0,0.0,0.0,0.0,0.0
1773566224.4915926,0.16,0.27,1.02,23.71,-18.82,193.75,1.06
1773566224.5579045,0.01,0.08,0.9,1.44,-52.67,163.39,0.9
1773566224.6600635,0.05,0.05,0.89,36.37,-34.44,123.85,0.89
1773566224.7605777,0.08,0.02,0.93,51.54,-24.03,82.35,0.94
1773566224.8612037,0.12,0.08,0.96,4.4,-31.5,54.12,0.97
1773566224.968212,0.08,-0.07,0.88,-10.06,-44.93,24.2,0.88
1773566225.0679464,0.15,-0.03,1.03,2.29,-40.57,28.9,1.04
1773566225.1677225,0.22,0.03,1.1,-29.62,-24.03,22.38,1.13
1773566225.2680798,0.38,0.21,0.87,-110.06,-16.47,-51.71,0.97
1773566225.38436,0.38,-0.01,0.77,-28.56,-50.37,0.7,0.86
1773566225.4878812,0.3,-0.01,0.77,67.89,0.15,85.45,0.83
1773566225.5831232,0.28,-0.09,0.75,18.73,-18.96,41.37,0.81
1773566225.692227,0.3,-0.11,0.84,42.14,5.42,70.47,0.9
1773566225.79433,0.26,-0.07,0.94,-7.37,8.99,36.08,0.98
1773566225.8854182,0.3,-0.26,1.04,22.02,26.5,82.85,1.11
1773566226.0010226,0.31,0.34,1.02,-105.42,-4.32,-14.89,1.12
1773566226.1038928,0.25,0.08,0.85,26.02,-52.24,-31.68,0.89
1773566226.202851,0.17,-0.06,0.84,12.26,-30.29,27.77,0.85
1773566226.2988129,0.09,0.01,0.87,2.06,-33.28,1.46,0.88
1773566226.4177928,0.11,-0.05,0.9,-17.95,-23.25,0.75,0.91
1773566226.5184736,0.19,-0.08,0.97,-64.05,-41.54,-42.35,0.99
1773566226.6206207,0.27,0.03,1.15,-0.98,-36.29,7.07,1.19
1773566226.7231898,0.16,-0.03,0.76,-109.42,-4.44,-43.12,0.78
1773566226.8137407,0.35,-0.05,0.82,35.56,12.58,-79.74,0.89
1773566226.9173672,0.12,-0.1,0.74,4.92,3.36,-70.93,0.76
1773566227.0346804,0.31,-0.15,0.89,-1.33,16.58,-103.45,0.96
1773566227.1348531,0.2,-0.16,0.81,-54.38,18.47,-71.94,0.85
1773566227.239396,0.24,-0.27,0.98,1.51,21.07,-42.73,1.04
1773566227.3371031,0.23,0.48,1.23,-20.05,-52.2,-61.34,1.34
1773566227.4385877,0.13,-0.06,0.89,48.9,-15.83,-77.92,0.91
1773566227.549446,0.16,0.08,0.83,-38.0,10.01,-38.78,0.85
1773566227.6541529,0.14,-0.01,0.76,-23.88,-35.12,-6.0,0.77
1773566227.7519796,0.1,-0.0,0.93,26.95,-12.34,-12.5,0.93
1773566227.8582516,0.11,-0.08,0.99,-6.76,-30.76,-34.12,1.0
1773566227.9573216,0.2,-0.19,1.02,-17.37,-47.92,-37.25,1.06
1773566228.0623047,0.41,0.37,1.05,-62.15,-26.92,-21.51,1.19
1773566228.1742978,0.3,0.02,0.7,-81.53,-6.38,1.31,0.76
1773566228.2723756,0.31,-0.03,0.78,72.55,-0.23,-15.77,0.83
1773566228.3846674,0.22,-0.14,0.84,49.48,3.24,13.8,0.88
1773566228.4808238,0.22,-0.16,0.88,-24.02,0.56,7.24,0.92
1773566228.581316,0.27,-0.06,1.09,-33.82,26.24,-14.09,1.12
1773566228.6860874,0.34,0.26,1.11,-35.94,24.56,1.89,1.19
1773566228.789123,0.02,0.13,0.81,-6.11,-50.23,-7.57,0.82
1773566228.8880904,0.1,-0.06,0.81,67.21,-5.33,-48.63,0.82
1773566229.0013294,0.07,0.0,0.86,3.77,-24.75,-10.61,0.86
1773566229.1047006,0.1,-0.07,0.95,7.47,-20.47,4.63,0.96
1773566229.2007682,0.09,-0.1,0.96,-48.52,-44.58,-7.74,0.97
1773566229.3032784,0.19,-0.16,1.12,-16.02,-4.7,20.52,1.15
1773566229.4022498,0.42,0.24,0.96,-102.49,-19.51,-19.65,1.08
1773566229.5029712,0.28,0.0,0.64,-30.56,-14.78,-55.1,0.7
1773566229.6198866,0.21,0.02,0.81,79.95,17.65,-9.39,0.84
1773566229.7171776,0.24,-0.12,0.84,24.64,1.66,-36.43,0.88
0.0,0.0,0.0,0.0,0.0,0.0,0.0,0.0
1773566230.8576665,0.29,0.39,1.14,-47.92,-38.98,-30.7,1.24
1773566230.950783,0.28,-0.09,0.72,-84.55,-7.97,-51.97,0.77
1773566231.0649729,0.25,-0.02,0.78,58.87,-8.81,-1.21,0.82
1773566231.1542864,0.22,-0.11,0.84,47.37,-5.12,-5.04,0.88
1773566231.267326,0.22,-0.1,0.88,8.05,-5.85,-17.88,0.91
1773566231.367351,0.23,-0.18,0.9,-22.46,29.34,-19.5,0.95
1773566231.469026,0.22,-0.21,1.05,8.09,24.41,107.85,1.1
1773566231.5793386,0.15,0.4,0.98,-62.92,-4.44,-12.98,1.07
1773566231.6711917,0.2,0.05,0.84,47.1,-28.57,-56.0,0.87
1773566231.784571,0.08,0.05,0.84,-12.61,-36.12,7.8,0.85
1773566231.8882403,0.05,0.0,0.93,9.5,-55.85,-10.87,0.93
1773566231.988412,0.03,-0.09,0.91,-33.37,-58.95,-56.63,0.92
1773566232.1013224,0.18,-0.05,1.02,-48.35,-48.69,-69.08,1.03
1773566232.2034426,0.23,0.02,1.05,-7.45,-8.18,40.04,1.08
1773566232.3005662,0.5,0.18,0.87,-99.86,-17.92,-92.79,1.03
1773566232.4037323,0.33,-0.06,0.74,37.21,-21.53,36.9,0.82
1773566232.500473,0.24,-0.08,0.75,30.34,-15.63,28.88,0.79
1773566232.601488,0.27,-0.15,0.8,51.48,-12.23,10.88,0.86
1773566232.7014787,0.24,-0.06,0.9,15.13,-17.56,2.81,0.93
1773566232.8171558,0.34,-0.19,0.99,-17.02,18.78,10.15,1.06
1773566232.921118,0.24,0.3,1.11,-6.61,29.83,46.0,1.17
1773566233.0207262,0.15,0.23,0.99,30.98,-41.33,-81.22,1.02
1773566233.1364284,0.18,-0.02,0.75,-43.94,-21.91,-11.91,0.77
1773566233.2327597,0.14,0.04,0.79,-50.2,-47.45,-50.54,0.8
1773566233.3198607,0.2,-0.1,0.91,12.4,14.78,-5.71,0.93
1773566233.4336908,0.24,-0.05,1.01,-26.49,-25.22,-23.13,1.04
1773566233.540319,0.29,0.13,1.16,22.64,-51.76,61.08,1.21
1773566233.633729,0.29,0.29,0.89,-50.86,-4.57,-9.88,0.99
1773566233.7340903,0.33,-0.09,0.69,9.91,-16.98,23.85,0.77
1773566233.8360243,0.18,-0.06,0.76,5.31,-5.15,13.19,0.78
1773566233.9524,0.26,-0.11,0.87,25.14,5.48,15.54,0.91
1773566234.0493724,0.24,-0.15,0.89,-26.99,9.74,-0.52,0.93
1773566234.1599264,0.25,-0.22,0.96,-39.88,10.46,21.31,1.02
1773566234.260047,0.35,0.2,1.14,-19.65,7.33,-10.83,1.21
1773566234.3525667,0.13,0.05,0.84,5.42,-16.86,-32.18,0.85
1773566234.46806,0.19,-0.07,0.76,-9.56,-13.16,-21.07,0.79
1773566234.5697348,0.14,-0.06,0.8,3.77,-28.84,-4.84,0.81
1773566234.6674466,0.17,-0.07,0.96,32.4,-20.73,5.17,0.98
1773566234.7756655,0.22,-0.08,1.0,-8.47,-30.11,8.15,1.03
1773566234.869461,0.3,0.1,1.14,20.7,-19.19,46.17,1.19
1773566234.9854186,0.4,0.15,0.88,-76.26,1.08,-49.16,0.98
1773566235.0863044,0.31,-0.02,0.74,14.41,-2.44,6.87,0.81
1773566235.1837988,0.19,-0.05,0.76,10.82,-13.37,-32.14,0.79
1773566235.292532,0.31,-0.09,0.89,25.02,-1.62,-44.28,0.95
1773566235.3866367,0.27,-0.08,0.85,-45.19,0.64,-35.89,0.89
0.0,0.0,0.0,0.0,0.0,0.0,0.0,0.0
1773566238.116932,0.32,-0.08,0.81,31.6,-44.34,-24.63,0.87
1773566238.1690512,0.24,-0.05,0.88,-0.26,-19.63,-43.92,0.91
1773566238.3172822,0.26,-0.13,0.88,-4.78,-10.89,-58.37,0.93
1773566238.376402,0.3,-0.16,1.03,27.77,20.18,-7.05,1.09
1773566238.4665906,0.37,0.39,1.15,-14.29,-30.7,28.47,1.27
1773566238.568931,0.19,0.32,0.89,-20.75,-24.64,-7.96,0.96
1773566238.683947,0.23,0.07,0.8,-40.15,-3.77,-60.35,0.84
1773566238.7856753,0.16,0.04,0.71,-41.56,-22.29,-25.05,0.72
1773566238.8858635,0.18,0.02,0.95,44.38,-41.82,23.66,0.96
1773566238.9914827,0.2,-0.01,0.98,-38.66,-49.53,-21.89,1.0
1773566239.0855806,0.26,-0.17,1.05,-25.04,-11.44,36.95,1.1
1773566239.200021,0.52,0.12,0.86,-60.56,31.66,-17.71,1.02
1773566239.303182,0.49,0.09,0.78,14.26,-7.68,1.3,0.93
1773566239.39968,0.25,0.04,0.78,11.18,8.59,20.95,0.83
1773566239.5052526,0.34,-0.08,0.73,-15.13,-0.15,-2.11,0.81
1773566239.602598,0.27,-0.14,0.82,-15.95,1.86,26.01,0.88
1773566239.7023735,0.25,-0.16,1.03,6.0,20.4,1.82,1.07
1773566239.8162634,0.28,0.04,1.18,42.4,8.76,57.39,1.22
1773566239.920797,0.02,0.06,0.83,-50.47,-12.34,-26.98,0.83
1773566240.0210292,0.17,-0.01,0.81,8.37,-1.31,-38.72,0.83
1773566240.1299286,0.11,-0.04,0.75,-34.49,-38.05,-16.44,0.76
1773566240.233086,0.2,-0.1,0.97,4.43,-43.22,-22.28,1.0
1773566240.3333192,0.19,-0.16,1.09,-9.68,-33.44,10.18,1.11
1773566240.4370284,0.25,0.23,1.11,-21.39,-36.03,40.18,1.16
1773566240.5331707,0.51,-0.14,0.8,-30.76,-20.92,-101.01,0.96
1773566240.6335263,0.27,-0.02,0.72,28.37,19.42,20.2,0.77
1773566240.7367182,0.25,-0.12,0.73,-5.69,-12.96,-13.57,0.78
1773566240.8522506,0.25,-0.1,0.83,2.73,-12.49,-18.54,0.87
1773566240.9499054,0.29,-0.23,0.94,19.54,4.95,-24.96,1.01
1773566241.0506363,0.31,0.03,1.24,85.25,-6.57,31.71,1.28
1773566241.1595404,0.13,0.18,0.9,-91.88,-24.15,5.97,0.93
1773566241.250486,0.22,-0.09,0.66,20.67,23.66,-31.47,0.7
1773566241.352986,0.17,0.02,0.76,28.34,-11.82,38.79,0.78
1773566241.467934,0.14,-0.02,0.96,49.97,-16.34,53.56,0.97
1773566241.5691843,0.06,-0.1,0.97,-34.11,-25.57,13.22,0.97
1773566241.6788983,0.28,-0.14,1.18,-12.53,0.34,21.11,1.22
1773566241.7808144,0.42,0.36,0.87,-114.92,-28.81,-9.66,1.03
1773566241.8831902,0.34,0.05,0.77,23.73,-30.32,11.75,0.84
1773566241.9872727,0.2,0.0,0.74,30.52,-1.08,26.7,0.77
1773566242.0854988,0.25,-0.09,0.82,38.05,-9.92,-0.75,0.86
1773566242.1938732,0.22,-0.11,0.85,-32.11,3.19,11.95,0.88
1773566242.2993405,0.26,-0.15,1.13,-23.91,20.84,3.43,1.17
0.0,0.0,0.0,0.0,0.0,0.0,0.0,0.0
1773566243.6530342,0.22,-0.23,1.14,6.4,5.65,80.63,1.19
1773566243.754008,0.18,0.39,1.0,-99.98,17.45,-42.41,1.09
1773566243.8544986,0.29,0.05,0.81,59.77,-25.56,-61.86,0.86
1773566243.965793,0.07,-0.04,0.76,1.05,-46.09,-2.9,0.76
1773566244.0657728,0.07,0.0,0.88,13.1,-50.75,-4.92,0.88
1773566244.1667836,0.08,-0.14,0.93,-16.2,-29.82,-12.78,0.95
1773566244.273219,0.3,-0.13,1.15,-1.36,-9.59,34.5,1.19
1773566244.3809693,0.33,0.31,0.88,-122.02,-32.23,6.34,0.99
1773566244.473806,0.3,-0.07,0.8,8.17,-41.37,25.01,0.86
1773566244.584808,0.15,-0.04,0.77,9.76,8.43,36.52,0.78
1773566244.6875217,0.26,-0.18,0.79,17.86,3.39,-7.24,0.85
1773566244.78292,0.27,-0.1,0.82,-31.22,5.6,-6.9,0.87
1773566244.8841803,0.28,-0.25,1.01,16.41,-19.48,26.92,1.08
1773566244.9995346,0.19,0.25,1.17,22.9,11.43,41.05,1.21
1773566245.098274,0.12,0.08,0.8,-52.24,-18.92,-11.02,0.81
1773566245.200312,0.24,-0.08,0.79,47.01,12.78,-31.08,0.83
1773566245.2999463,0.1,-0.02,0.8,16.85,-17.01,59.71,0.81
1773566245.4130182,0.16,-0.09,0.95,23.01,-35.41,22.82,0.97
1773566245.518759,0.14,-0.2,1.03,-11.91,-52.06,17.22,1.06
1773566245.6169226,0.23,0.08,1.19,12.85,3.79,45.28,1.21
1773566245.718804,0.37,-0.03,0.7,-140.92,-33.1,-6.96,0.79
1773566245.8157108,0.41,0.01,0.77,88.85,-28.0,80.47,0.87
1773566245.9198627,0.21,-0.1,0.73,64.96,-16.09,67.79,0.76
1773566246.032265,0.34,-0.06,0.91,74.0,-13.47,27.21,0.97
1773566246.1350963,0.2,-0.23,0.85,8.73,17.28,27.95,0.91
1773566246.235361,0.3,-0.04,1.14,23.88,35.95,18.66,1.18
1773566246.3355052,0.34,0.36,1.1,-14.55,36.27,34.4,1.21
1773566246.4419312,0.22,0.13,0.77,-57.1,-48.47,11.16,0.81
1773566246.5492463,0.16,-0.01,0.81,21.88,-4.75,45.4,0.83
1773566246.6381605,0.07,0.03,0.81,-25.86,-20.47,17.86,0.81
1773566246.7534018,0.16,-0.11,0.89,-19.63,-34.38,-13.97,0.91
1773566246.8537922,0.17,-0.12,1.03,-28.09,-43.39,14.3,1.05
1773566246.9619954,0.29,0.03,1.14,28.32,-10.98,62.23,1.18
1773566247.0602703,0.27,0.09,0.72,-96.03,-17.68,-45.51,0.77
1773566247.165549,0.39,-0.04,0.82,68.12,-12.84,28.98,0.91
1773566247.2680116,0.16,-0.09,0.77,11.77,-9.79,-4.2,0.79
1773566247.365749,0.28,-0.1,0.88,18.76,14.61,-35.53,0.93
1773566247.4791036,0.2,-0.09,0.88,-23.53,21.43,-62.37,0.9
1773566247.5803623,0.26,-0.21,1.12,13.1,56.73,20.88,1.17
0.0,0.0,0.0,0.0,0.0,0.0,0.0,0.0
1773566248.9310527,0.3,0.07,1.05,30.32,-21.34,188.44,1.1
1773566249.031963,0.07,0.18,0.96,-34.89,-76.5,171.59,0.98
1773566249.1489172,0.1,0.07,0.81,6.46,-35.41,93.88,0.82
1773566249.2497234,0.15,-0.09,0.83,66.95,-3.04,90.37,0.85
1773566249.3519366,0.19,-0.07,1.0,84.79,0.61,102.81,1.02
1773566249.4514256,0.11,-0.06,0.93,-8.96,-42.28,67.51,0.94
1773566249.558047,0.14,-0.18,0.91,-19.69,-25.77,21.42,0.93
1773566249.6666613,0.35,0.08,1.28,79.6,-33.12,61.02,1.33
1773566249.7689335,0.33,0.13,0.76,-122.12,-43.27,68.29,0.84
1773566249.8693266,0.31,-0.02,0.74,78.37,-8.31,115.14,0.8
1773566249.9723544,0.24,-0.11,0.77,37.68,11.36,67.82,0.82
1773566250.079929,0.28,-0.08,0.85,21.33,4.43,36.29,0.9
1773566250.170938,0.29,-0.18,0.84,-14.31,-5.97,25.1,0.91
1773566250.2819831,0.32,-0.27,1.1,-10.06,28.2,101.24,1.18
1773566250.3821738,0.34,0.39,1.24,-78.15,-14.2,-10.0,1.34
1773566250.4844348,0.3,-0.04,0.75,-16.27,-40.35,-11.37,0.81
1773566250.5864143,0.18,-0.16,0.75,52.85,-3.65,21.42,0.79
1773566250.6971085,0.07,-0.04,0.87,12.66,-33.25,-3.12,0.87
1773566250.7867985,0.08,-0.19,0.88,-48.4,-7.92,-26.41,0.9
1773566250.9013271,0.27,-0.31,1.05,-75.51,-34.95,-70.52,1.13
1773566251.0011466,0.27,0.11,1.17,-20.69,-13.25,-20.49,1.21
1773566251.100891,0.25,-0.2,0.72,-38.98,21.65,-108.58,0.79
1773566251.209349,0.25,-0.08,0.76,10.69,43.77,-46.46,0.8
1773566251.316413,0.27,-0.21,0.71,-2.52,9.24,-82.73,0.79
1773566251.4183347,0.32,-0.15,0.85,20.43,18.29,-27.99,0.92
1773566251.5159595,0.2,-0.25,1.01,16.72,-11.44,-7.33,1.06
1773566251.61621,0.22,0.22,1.35,-30.72,12.17,35.08,1.38
1773566251.7426145,0.03,0.14,0.87,-50.41,-38.79,-71.1,0.89
1773566251.8323534,0.09,-0.14,0.73,-2.29,0.81,-111.05,0.75
1773566251.937256,0.04,-0.02,0.82,-52.35,-37.13,-103.05,0.82
1773566252.2509663,0.14,-0.22,0.88,0.23,-19.5,-62.17,0.92
1773566252.25225,0.11,-0.21,1.11,22.6,-52.06,-60.38,1.13
1773566252.25225,0.13,-0.25,1.08,-28.02,-15.6,10.55,1.11
1773566252.3498032,0.49,0.34,0.91,-64.52,-18.73,-92.47,1.09
1773566252.439328,0.28,-0.11,0.77,-2.17,-10.08,-10.41,0.82
1773566252.5963805,0.24,-0.08,0.75,-25.5,11.56,-70.7,0.79
1773566252.6865776,0.31,-0.17,0.81,-16.84,12.53,-89.15,0.89
1773566252.784897,0.24,-0.19,0.84,-0.87,17.13,-43.21,0.89
1773566252.8666158,0.29,-0.22,0.92,22.98,4.05,-23.04,0.99
1773566252.9815483,0.22,-0.32,1.15,67.04,12.75,65.65,1.21
1773566253.0682986,0.12,0.42,1.03,-128.76,-0.18,-63.89,1.12
1773566253.1982746,0.26,-0.05,0.7,15.98,28.41,-74.14,0.75
1773566253.2847743,0.13,0.01,0.77,-16.05,-14.46,45.07,0.78
1773566253.3853006,0.1,-0.01,0.95,44.53,-31.95,-4.69,0.95
1773566253.4858642,0.09,-0.12,0.91,-18.15,-10.5,-1.24,0.92
1773566253.586773,0.02,-0.15,0.94,-4.21,6.92,-16.9,0.95
1773566253.698223,0.27,-0.05,1.17,60.63,-11.18,27.75,1.2
1773566253.787713,0.39,0.21,0.96,-94.23,-1.6,4.32,1.05
1773566253.90165,0.17,-0.1,0.76,37.04,-66.2,74.35,0.79
1773566253.9997883,0.04,-0.1,0.79,0.95,-5.71,20.08,0.79
1773566254.0984654,0.22,-0.11,0.86,13.45,-2.46,31.97,0.89
0.0,0.0,0.0,0.0,0.0,0.0,0.0,0.0
1773566263.9228067,0.21,0.13,0.89,-26.76,-35.25,4.2,0.92
1773566263.9887805,0.14,-0.07,0.66,-15.54,-12.44,17.51,0.68
1773566264.097965,0.03,-0.01,0.77,22.82,-26.73,10.75,0.77
1773566264.188841,0.12,-0.15,1.03,54.11,-11.22,5.05,1.05
1773566264.3969572,0.14,-0.11,1.03,-57.42,-52.17,-26.41,1.04
1773566264.3969572,0.45,0.15,1.23,43.1,-20.06,29.17,1.32
1773566264.538522,0.22,0.15,0.82,-117.57,17.33,-1.42,0.86
1773566264.6135468,0.2,-0.02,0.63,-39.47,-2.7,22.06,0.66
1773566264.7170322,0.11,-0.06,0.71,68.87,-0.9,22.37,0.72
1773566264.8198218,0.15,-0.1,0.86,48.98,-40.35,-22.57,0.87
1773566264.9169474,0.1,-0.13,1.02,6.63,30.43,-27.71,1.03
1773566265.026342,0.08,-0.11,1.3,-18.26,6.66,-30.73,1.31
1773566265.130147,0.31,0.06,0.96,-67.19,58.69,-77.5,1.01
1773566265.2366838,0.14,0.08,0.78,-39.3,-54.5,-36.46,0.8
1773566265.3356545,0.13,0.01,0.73,-77.33,-23.02,-53.47,0.74
1773566265.436905,0.03,-0.1,0.83,13.25,-2.47,-50.5,0.84
1773566265.5374265,0.15,-0.18,0.99,-47.21,-6.86,-45.77,1.02
1773566265.6378589,0.4,-0.31,1.15,18.17,-5.85,-12.63,1.25
1773566265.747882,0.53,0.1,0.94,-0.32,-61.41,58.34,1.08
1773566265.848391,0.31,0.06,0.59,-2.9,17.42,121.04,0.67
1773566265.9483109,0.24,-0.04,0.63,142.0,-51.16,80.76,0.67
1773566266.0568304,0.27,-0.09,0.9,127.5,-40.28,79.42,0.94
1773566266.163813,0.21,-0.06,0.98,22.96,42.34,49.14,1.0
1773566266.2648976,0.2,0.03,1.32,42.75,11.97,6.41,1.34
1773566266.3694692,0.48,0.33,0.92,-74.56,97.71,-50.15,1.09
1773566266.4673643,0.32,0.19,0.7,-10.06,-9.74,-30.15,0.79
1773566266.5802565,0.08,0.21,0.67,-32.79,60.56,-89.79,0.71
1773566266.6705673,0.07,-0.01,0.91,-32.98,18.26,-35.44,0.91
1773566266.784583,0.07,-0.06,1.1,-3.48,-13.22,0.61,1.11
1773566266.8834486,0.16,0.26,1.22,77.56,-44.35,68.46,1.26
1773566266.979972,0.2,0.32,0.85,-55.89,-15.95,58.9,0.93
1773566267.0930004,0.13,0.23,0.75,-36.87,-48.9,84.98,0.8
1773566267.1878088,0.12,0.07,0.74,8.27,3.48,41.62,0.75
1773566267.2964911,0.18,0.13,0.86,31.98,-11.7,47.04,0.89
1773566267.3994782,0.12,0.06,0.94,-57.69,36.11,1.37,0.95
1773566267.5011013,0.15,-0.17,1.16,-21.54,27.82,29.63,1.18
1773566267.6004982,0.07,0.34,0.91,-64.6,33.33,-34.76,0.98
1773566267.713668,-0.01,0.1,0.84,-18.75,-20.69,-36.37,0.85
1773566267.817185,0.03,0.2,0.85,-41.22,-22.41,-9.91,0.87
1773566267.9158282,-0.04,-0.12,0.84,5.83,-33.24,-4.43,0.85
0.0,0.0,0.0,0.0,0.0,0.0,0.0,0.0
1773566295.055581,-0.03,-1.11,0.04,13.65,-14.73,3.54,1.11
1773566295.1512804,0.11,-0.78,0.04,-35.62,28.56,-48.06,0.78
1773566295.262036,-0.06,-1.11,0.19,-48.66,55.47,-28.93,1.13
1773566295.3702495,0.02,-0.82,0.16,-17.88,50.92,-21.02,0.83
1773566295.4611044,-0.09,-0.94,0.2,-40.35,46.58,-6.2,0.96
1773566295.564688,-0.05,-0.99,0.25,-7.85,3.65,3.56,1.03
1773566295.6637402,-0.07,-1.08,0.16,2.99,-29.92,33.22,1.09
1773566295.7807524,-0.13,-1.05,0.1,0.24,-51.91,21.01,1.07
1773566295.8816023,-0.2,-0.8,-0.11,32.2,-12.89,38.96,0.83
1773566295.9823642,-0.15,-0.78,0.02,-39.56,-66.32,6.38,0.8
1773566296.0828547,-0.18,-0.91,0.09,-30.06,-25.41,-12.86,0.94
1773566296.1828687,-0.22,-0.87,0.11,-3.08,-44.47,-11.7,0.9
1773566296.2956915,-0.25,-1.02,0.15,-22.76,-66.63,-8.44,1.06
1773566296.3956978,-0.23,-1.06,0.25,52.89,-49.92,-1.59,1.11
1773566296.492772,-0.05,-1.1,-0.12,8.37,-30.61,21.82,1.1
1773566296.601359,0.07,-0.91,-0.03,-23.8,-28.4,-25.36,0.91
1773566296.710325,-0.11,-0.96,0.09,-12.2,7.56,1.4,0.97
1773566296.8124373,-0.03,-0.8,0.12,-8.93,-33.5,4.01,0.81
1773566296.916235,-0.1,-1.01,0.16,-16.08,-33.1,3.37,1.03
1773566297.0174894,-0.16,-1.11,0.23,-12.46,-15.3,32.2,1.14
1773566297.126962,-0.18,-1.01,0.22,56.03,-54.64,32.67,1.05
1773566297.2159977,-0.07,-1.1,-0.15,-32.47,-36.31,-13.96,1.11
1773566297.3170755,-0.11,-0.9,-0.12,-59.85,-23.62,-25.57,0.92
1773566297.4297318,-0.08,-0.8,0.1,29.13,-16.84,-7.41,0.81
1773566297.5277138,-0.25,-0.95,0.14,-17.5,3.11,-18.46,0.99
1773566297.6317952,-0.16,-0.84,0.17,9.69,0.3,-41.04,0.87
1773566297.7455208,-0.11,-1.13,0.08,76.61,-2.58,0.73,1.14
1773566297.842398,0.03,-1.48,0.16,-36.53,-15.92,-23.68,1.49
1773566297.944288,0.1,-0.69,0.06,-18.66,30.17,-5.66,0.7
1773566298.042799,0.0,-0.87,0.21,-25.15,25.02,-32.26,0.89
1773566298.1512637,0.08,-0.82,0.24,-6.64,50.12,5.97,0.86
1773566298.2508109,-0.07,-0.93,0.29,-17.98,54.43,-2.35,0.97
1773566298.36006,-0.13,-1.14,0.25,-17.66,45.97,54.93,1.17
1773566298.463419,0.08,-1.11,0.02,-18.7,24.08,45.79,1.11
1773566298.5656269,-0.21,-0.82,0.03,-16.84,49.82,7.36,0.85
1773566298.667765,-0.16,-0.88,0.09,10.38,5.72,-17.04,0.9
1773566298.7754912,-0.22,-0.74,0.09,-10.98,31.08,-25.27,0.78
1773566298.8766918,-0.23,-1.02,0.14,3.18,12.87,-31.86,1.05
1773566298.976981,-0.23,-0.94,0.22,20.93,-4.96,-37.82,1.0
1773566299.0774972,-0.07,-1.21,0.31,36.17,-56.09,-76.02,1.25
1773566299.1806452,0.09,-0.81,-0.06,-21.33,53.53,-30.76,0.82
1773566299.2775822,-0.03,-1.01,0.1,-9.69,4.06,-20.12,1.02
1773566299.3950408,0.04,-0.78,0.17,-8.89,-1.8,11.28,0.8
1773566299.4929855,0.02,-0.97,0.21,-15.83,-14.9,10.53,0.99
1773566299.6006606,-0.0,-0.89,0.29,-6.67,9.21,15.91,0.93
1773566299.7012508,-0.1,-1.15,0.31,8.9,11.43,19.4,1.2
1773566299.801938,0.1,-1.14,0.05,35.16,-39.99,23.33,1.14
1773566299.9027717,-0.1,-0.76,-0.07,-15.88,17.02,-18.46,0.77
0.0,0.0,0.0,0.0,0.0,0.0,0.0,0.0
1773566302.007261,-0.12,-1.1,0.32,40.06,-75.63,-46.0,1.15
1773566302.1291256,0.37,-1.15,-0.08,2.2,-22.24,47.75,1.21
1773566302.213535,0.19,-0.81,0.02,-27.34,-4.75,-16.18,0.83
1773566302.3119464,0.04,-0.91,0.18,-29.76,23.77,-2.54,0.93
1773566302.4119372,0.04,-0.9,0.15,-17.66,9.65,36.18,0.91
1773566302.5200057,0.02,-0.94,0.19,-13.86,19.08,25.68,0.96
1773566302.614422,-0.07,-1.26,0.24,21.27,-14.78,29.13,1.28
1773566302.743814,-0.04,-1.19,-0.0,38.61,-13.37,24.01,1.19
1773566302.837904,-0.21,-0.78,-0.1,-24.5,-27.92,-14.44,0.82
1773566302.944736,-0.0,-0.98,0.09,-28.82,-68.75,-19.28,0.99
1773566303.0269392,-0.13,-0.83,0.08,-19.15,-38.81,-12.96,0.85
1773566303.1358733,-0.15,-0.88,0.13,0.93,-43.57,-10.43,0.9
1773566303.2457983,-0.15,-1.11,0.15,7.3,-36.29,13.05,1.13
1773566303.341828,0.13,-1.23,0.17,52.87,-46.78,6.34,1.25
1773566303.4612975,0.1,-0.76,-0.04,-26.72,-17.59,-12.03,0.77
1773566303.5632064,-0.03,-1.01,0.14,-13.86,-34.81,-5.89,1.02
1773566303.6613045,0.03,-0.74,0.11,-14.99,-41.59,23.57,0.75
1773566303.7603393,0.02,-0.97,0.17,-30.27,-57.33,3.75,0.98
1773566303.8744636,-0.01,-0.97,0.24,-13.65,-56.11,17.07,1.0
1773566303.9612527,0.06,-1.3,0.13,28.38,-19.31,48.12,1.31
1773566304.076261,-0.05,-0.95,-0.11,8.06,-3.57,-0.44,0.95
1773566304.1862223,-0.14,-0.85,0.08,-60.82,-66.64,-41.83,0.87
1773566304.295646,-0.06,-0.77,0.14,-11.8,-41.39,-2.26,0.79
1773566304.3933797,-0.18,-0.92,0.14,-24.35,-17.8,-20.49,0.95
1773566304.476615,-0.06,-0.88,0.14,23.28,-39.92,3.27,0.9
1773566304.579398,0.01,-1.19,0.23,25.14,-79.76,-17.73,1.22
1773566304.7110302,0.02,-0.95,0.02,-13.24,-6.5,-8.03,0.95
1773566304.7955334,0.04,-0.85,0.11,-33.15,-8.08,-5.27,0.86
1773566304.8943782,-0.0,-0.79,0.1,-14.08,7.48,-1.08,0.8
1773566305.004207,0.06,-0.95,0.2,-16.93,8.63,10.37,0.97
1773566305.1109974,-0.06,-0.89,0.26,4.31,26.06,-6.83,0.93
1773566305.196797,-0.13,-1.08,0.28,51.66,7.53,24.58,1.13
1773566305.312441,0.09,-1.21,-0.04,45.16,16.41,61.21,1.21
1773566305.4083395,-0.18,-0.93,-0.04,-31.89,9.47,-34.55,0.94
1773566305.5119617,-0.1,-0.78,0.16,-25.07,-14.92,-28.09,0.8
1773566305.624787,-0.15,-0.9,0.11,-27.77,6.56,-11.15,0.91
1773566305.729845,-0.21,-0.86,0.18,18.14,-31.62,-29.76,0.9
1773566305.830612,-0.22,-1.11,0.18,13.16,-54.92,1.16,1.14
1773566305.9308598,0.24,-1.34,0.02,71.53,-57.34,13.77,1.36
1773566306.0315068,0.09,-0.9,-0.0,-30.29,-45.63,-4.41,0.91
1773566306.1402836,-0.12,-0.82,0.21,-65.92,-44.9,-47.89,0.86
1773566306.2418778,0.06,-0.84,0.21,-7.24,-80.46,60.64,0.87
1773566306.340597,0.01,-0.93,0.21,-21.31,-99.92,-1.71,0.95
1773566306.44256,-0.0,-0.92,0.19,-9.5,-130.93,47.45,0.94
0.0,0.0,0.0,0.0,0.0,0.0,0.0,0.0
1773566308.2571795,-0.11,-1.0,0.24,-8.5,-49.94,27.54,1.03
1773566308.3478615,-0.09,-1.21,0.07,38.9,-41.01,49.22,1.22
1773566308.4486313,-0.23,-0.89,-0.17,-0.96,11.39,24.21,0.94
1773566308.5494535,-0.2,-1.04,0.08,-34.5,-48.5,-11.16,1.06
1773566308.6578617,-0.17,-0.76,0.08,3.71,12.64,-14.57,0.79
1773566308.7631583,-0.23,-0.99,0.07,-14.87,-10.02,-23.19,1.01
1773566308.8604598,-0.27,-0.88,0.12,-21.28,-28.79,-41.94,0.93
1773566308.9726958,-0.21,-0.97,0.14,-7.18,-44.47,-12.12,1.0
1773566309.0746517,-0.21,-1.06,0.29,29.68,-45.76,-45.54,1.12
1773566309.1738915,0.08,-1.2,-0.11,17.5,50.78,62.93,1.2
1773566309.2740903,-0.01,-0.86,0.03,-25.1,-20.06,-49.73,0.86
1773566309.3832035,-0.08,-0.88,0.08,-19.6,1.83,3.24,0.89
1773566309.478489,-0.08,-0.84,0.18,-24.49,-44.05,3.68,0.87
1773566309.576086,-0.1,-0.99,0.17,-36.34,-10.57,15.72,1.01
1773566309.6926708,-0.07,-0.95,0.19,3.56,-9.97,30.29,0.97
1773566309.802666,-0.23,-1.29,0.34,19.63,8.96,9.5,1.35
1773566309.8953364,0.02,-1.14,-0.19,9.44,36.55,103.27,1.16
1773566310.0091946,-0.21,-0.79,-0.11,-30.02,-20.44,-46.66,0.83
1773566310.1076484,-0.14,-0.92,0.04,-14.67,-44.81,-14.05,0.93
1773566310.2077055,-0.22,-0.9,0.0,5.04,6.5,-24.64,0.93
1773566310.3119123,-0.27,-0.92,0.1,0.99,-29.01,-29.79,0.97
1773566310.41036,-0.21,-0.93,0.12,15.07,-37.74,-20.46,0.96
1773566310.526868,-0.29,-1.05,0.29,33.63,-63.37,-58.21,1.12
1773566310.6232312,0.19,-1.24,-0.1,16.58,-14.78,50.3,1.26
1773566310.7283945,-0.0,-0.76,0.07,-23.77,-25.91,-66.89,0.76
1773566310.826965,0.04,-0.79,0.12,-4.72,-8.66,7.42,0.8
1773566310.92667,-0.06,-0.87,0.17,-39.83,-21.33,2.47,0.89
1773566311.024521,-0.04,-0.92,0.25,-26.05,-39.54,20.95,0.96
1773566311.1420732,-0.06,-1.05,0.26,-12.41,-21.85,27.91,1.08
1773566311.2450397,-0.05,-1.08,0.29,36.82,-50.37,-5.7,1.12
1773566311.342313,-0.11,-1.05,-0.24,-2.67,26.44,40.9,1.09
1773566311.4435406,-0.11,-0.84,0.03,-32.61,-54.84,-57.12,0.85
1773566311.5407703,-0.09,-0.78,0.05,-9.68,-8.03,-1.76,0.79
1773566311.6654625,-0.16,-0.98,0.1,-12.37,-2.76,-29.71,1.0
1773566311.7637885,-0.16,-0.88,0.17,16.26,-14.81,-37.68,0.91
1773566311.8641129,-0.25,-1.23,0.28,6.37,-52.29,-50.6,1.29
1773566311.9647326,0.22,-1.34,-0.07,17.5,-14.35,15.8,1.36
1773566312.07163,0.21,-0.81,-0.08,-21.22,-11.3,-31.83,0.84
1773566312.1703806,0.03,-0.81,0.14,-13.86,-4.98,-19.68,0.82
1773566312.2763774,0.05,-0.83,0.14,-11.88,-17.86,20.35,0.84
1773566312.3737595,0.03,-0.93,0.22,-32.75,-48.18,-5.74,0.96
1773566312.4779315,0.06,-0.92,0.24,-18.03,-19.6,30.92,0.95
1773566312.587717,0.04,-1.04,0.26,-28.26,5.77,-1.19,1.07
1773566312.686178,0.0,-1.23,-0.04,-5.02,43.31,-2.08,1.23
1773566312.7907448,-0.04,-1.01,-0.16,-9.57,3.69,-12.96,1.02
0.0,0.0,0.0,0.0,0.0,0.0,0.0,0.0
1773566314.306189,-0.21,-0.93,-0.09,-5.1,-1.57,-29.8,0.96
1773566314.306189,-0.14,-0.99,0.07,-27.11,-56.24,-4.18,1.0
1773566314.361494,-0.04,-0.71,0.06,-7.04,-34.47,-2.63,0.71
1773566314.4595044,-0.17,-0.98,0.14,-9.45,-38.38,-21.16,1.0
1773566314.5636957,-0.15,-0.87,0.2,21.73,-38.95,-7.94,0.9
1773566314.6780453,-0.16,-1.15,0.35,45.33,-50.06,-37.42,1.21
1773566314.777396,0.06,-1.19,-0.02,21.83,0.92,11.75,1.2
1773566314.881142,0.09,-1.04,-0.02,-36.89,-36.38,-3.8,1.04
1773566314.9818456,0.02,-0.75,0.2,-22.86,-53.8,-25.44,0.78
1773566315.0825603,0.03,-0.87,0.19,-20.43,-54.21,26.43,0.89
1773566315.192583,-0.04,-0.88,0.24,-16.63,-39.27,4.43,0.91
1773566315.287495,0.0,-0.96,0.24,-17.39,-15.04,50.44,0.99
1773566315.3944893,-0.18,-1.15,0.4,22.84,-40.81,1.16,1.23
1773566315.4925363,0.11,-1.28,-0.27,1.08,11.62,132.67,1.31
1773566315.5934956,-0.2,-0.87,0.13,-66.06,-95.18,-91.13,0.9
1773566315.6930132,-0.05,-0.78,0.07,16.76,-67.91,13.79,0.79
1773566315.8091445,-0.17,-0.87,0.08,-32.9,-48.17,-27.18,0.89
1773566315.907719,-0.16,-0.87,0.19,-7.3,-60.57,-19.16,0.9
1773566316.015006,-0.19,-1.24,0.24,-32.52,-68.37,-57.3,1.27
1773566316.108151,0.23,-1.3,-0.03,32.08,-31.13,6.14,1.32
1773566316.2162566,0.14,-0.89,-0.11,-31.54,-32.7,17.98,0.9
1773566316.326178,0.07,-0.92,0.06,18.43,-36.31,20.92,0.93
1773566316.4257612,0.07,-0.71,0.06,18.87,-50.93,27.1,0.72
1773566316.5280516,0.03,-0.95,0.19,-11.94,-47.31,10.56,0.97
1773566316.6279476,0.01,-0.96,0.28,-9.01,-20.05,23.37,1.0
1773566316.74152,-0.09,-1.14,0.29,5.91,3.36,13.54,1.18
1773566316.8429046,0.06,-1.28,-0.22,2.4,49.4,83.3,1.3
1773566316.9406905,-0.06,-0.93,-0.07,-25.21,-0.61,-32.15,0.93
1773566317.0463064,-0.04,-0.79,0.06,6.26,-21.63,-11.25,0.79
1773566317.142378,-0.2,-0.87,0.1,-8.15,3.91,-17.47,0.9
1773566317.2446673,-0.16,-0.9,0.17,11.66,-8.96,-6.66,0.93
1773566317.3566494,-0.17,-1.05,0.18,-8.27,-2.03,25.66,1.08
1773566317.4566054,0.1,-1.16,0.16,50.23,-18.69,-33.42,1.17
1773566317.5623848,0.08,-0.88,0.03,-18.23,46.49,-82.09,0.88
1773566317.6589825,-0.02,-0.98,0.13,-11.04,75.27,-18.81,0.99
1773566317.7619135,0.06,-0.81,0.13,-9.6,71.97,-7.1,0.82
1773566317.865505,0.03,-0.97,0.19,-29.89,49.77,1.5,0.99
1773566317.974779,0.01,-0.93,0.26,-26.5,28.88,12.75,0.96
1773566318.0770075,-0.11,-1.18,0.33,-22.11,36.05,10.03,1.23
1773566318.1764405,0.03,-1.11,0.04,25.74,31.83,26.44,1.11
1773566318.2778604,-0.23,-0.93,-0.17,-11.5,49.16,8.64,0.98
1773566318.3937173,-0.07,-0.91,0.09,5.65,2.21,-40.0,0.92
0.0,0.0,0.0,0.0,0.0,0.0,0.0,0.0
1773566322.524197,-0.06,-0.95,0.13,-1.1,-11.39,-5.45,0.96
1773566322.6395924,-0.07,-0.98,0.13,-8.29,-10.17,-7.08,0.99
1773566322.7447224,-0.07,-0.95,0.12,-7.48,-11.59,-5.3,0.96
1773566322.8437457,-0.06,-0.98,0.11,-7.47,-10.76,-3.44,0.99
1773566322.941579,-0.06,-0.96,0.1,-10.14,-12.14,-4.86,0.97
1773566323.0454657,-0.04,-0.89,0.05,-27.74,-7.18,-3.73,0.89
1773566323.1421864,-0.05,-0.47,-0.13,-105.31,-0.12,-42.12,0.48
1773566323.259446,0.04,-0.07,-0.0,-154.92,-26.92,-140.34,0.08
1773566323.3507574,0.04,-1.07,-0.45,-186.76,37.77,61.37,1.16
1773566323.4649005,0.02,-1.23,-0.68,-307.3,41.18,-122.81,1.4
1773566323.5583713,0.12,-1.82,-0.55,-11.47,-59.34,-63.53,1.9
1773566323.6581898,0.9,-1.73,-1.68,157.25,-5.19,94.93,2.57
1773566323.7755802,0.33,-1.17,-0.87,-134.5,53.4,59.79,1.5
1773566323.875646,0.09,-0.8,-0.35,-60.96,36.0,-37.48,0.87
1773566323.9762945,0.27,-0.57,-0.56,-36.89,-61.05,-5.83,0.84
1773566324.0756354,0.42,-0.66,-0.8,-24.17,-67.15,-25.1,1.12
1773566324.1761694,0.38,-0.66,-0.89,-6.03,9.05,-1.36,1.18
1773566324.2925951,0.27,-0.65,-0.64,-25.36,24.06,-7.53,0.95
0.0,0.0,0.0,0.0,0.0,0.0,0.0,0.0
1773566327.2966044,-0.03,-0.9,0.14,-7.8,-6.38,6.87,0.91
1773566327.4094942,-0.05,-0.97,0.19,-8.23,-13.5,-2.08,0.99
1773566327.5117855,-0.05,-0.95,0.17,-6.86,-9.13,-0.73,0.96
1773566327.6110425,-0.05,-0.95,0.19,-11.82,-13.12,-1.3,0.97
1773566327.7085938,-0.03,-0.96,0.14,-9.53,-12.58,5.66,0.97
1773566327.8141296,-0.05,-0.96,0.17,-1.92,-11.95,-6.57,0.98
1773566327.9267397,-0.05,-0.97,0.17,-4.78,-9.16,-3.16,0.99
1773566328.027055,-0.06,-0.95,0.18,-7.02,-11.85,-5.15,0.97
1773566328.1252637,-0.06,-0.95,0.16,-5.39,-10.46,-3.05,0.97
1773566328.2266042,-0.05,-0.95,0.17,-6.82,-12.03,-4.78,0.97
1773566328.3436697,-0.06,-0.95,0.17,-9.62,-8.95,-4.06,0.96
1773566328.444383,-0.05,-0.95,0.15,-24.55,-9.37,-8.0,0.96
1773566328.5446837,-0.03,-0.91,0.1,-44.73,-9.41,-10.63,0.91
1773566328.6453123,0.0,-0.67,-0.02,-94.78,0.75,-25.37,0.67
1773566328.7552984,-0.03,-0.38,-0.06,-153.71,-3.6,-65.51,0.38
1773566328.857571,0.03,-0.08,-0.07,-171.57,-4.86,-72.99,0.11
1773566328.9600878,0.28,-0.64,-0.54,-162.98,67.42,-31.34,0.88
1773566329.0600064,-0.2,-1.43,-0.18,-197.24,-179.41,-278.31,1.45
1773566329.1598992,0.37,-2.0,-1.64,-84.63,-94.05,-143.15,2.61
1773566329.2620697,-0.04,-1.4,-0.51,-237.1,47.65,-52.43,1.49
1773566329.374128,0.11,-0.4,-0.34,-3.24,60.5,17.88,0.53
1773566329.4722965,0.29,-0.24,-0.52,-29.89,-59.63,-13.12,0.64
1773566329.5767152,0.09,-0.96,-0.81,76.32,-72.4,19.79,1.26
1773566329.6791663,0.49,-0.77,-1.11,4.08,44.15,13.39,1.44
1773566329.7769408,0.15,-0.65,-0.5,-31.25,30.44,-10.6,0.83
1773566329.8895738,0.19,-0.61,-0.56,6.9,-24.96,5.53,0.85
1773566329.9907649,0.33,-0.72,-0.87,14.73,-41.68,4.7,1.17
1773566330.0907483,0.3,-0.72,-0.78,-20.32,6.15,-4.03,1.1
1773566330.1995587,0.23,-0.63,-0.62,-10.82,-8.37,-23.41,0.92
0.0,0.0,0.0,0.0,0.0,0.0,0.0,0.0
1773566331.910774,0.01,-0.92,-0.31,106.66,-39.94,32.76,0.98
1773566332.0276484,0.06,-0.75,-0.25,134.05,-38.95,30.7,0.8
1773566332.1276448,0.02,-0.76,-0.17,120.49,-17.92,56.58,0.78
1773566332.2246218,0.02,-0.72,-0.1,72.09,-26.24,52.09,0.72
1773566332.3237135,-0.1,-0.98,0.01,57.39,-8.09,28.3,0.98
1773566332.4314072,-0.04,-1.01,0.04,27.16,-20.0,-5.39,1.01
1773566332.5395577,-0.09,-0.92,0.13,27.07,-30.31,-5.96,0.93
1773566332.641439,-0.06,-1.02,0.08,0.69,-29.94,3.74,1.02
1773566332.7405057,-0.04,-0.95,0.1,-6.81,-20.75,-6.49,0.96
1773566332.8443012,-0.05,-0.99,0.1,-11.28,-12.61,-8.26,0.99
1773566332.9575307,-0.06,-0.97,0.1,-6.03,-7.68,-8.58,0.97
1773566333.055425,-0.06,-0.98,0.1,0.63,-6.95,-2.34,0.98
1773566333.157394,-0.06,-0.98,0.1,-4.87,-8.81,-1.82,0.99
1773566333.2681935,-0.06,-0.98,0.1,-2.76,-13.13,-0.18,0.99
1773566333.3684833,-0.05,-0.97,0.1,-2.55,-15.31,-4.47,0.98
1773566333.4736452,-0.06,-0.97,0.09,-2.11,-10.79,-2.32,0.97
1773566333.5735762,-0.04,-0.97,0.1,-2.2,-10.02,-3.16,0.97
1773566333.673655,-0.04,-0.94,0.1,-12.18,-5.51,-8.63,0.95
1773566333.7753005,-0.05,-0.92,0.06,-42.84,-0.4,-7.97,0.92
1773566333.8878095,-0.01,-0.76,-0.01,-92.52,5.5,-25.37,0.76
1773566333.981114,-0.0,-0.23,-0.1,-164.76,9.62,-65.5,0.25
1773566334.097012,-0.01,-0.21,-0.1,-181.37,-0.67,-59.47,0.23
1773566334.1902528,0.15,-0.46,-0.38,-174.67,55.72,-17.07,0.62
1773566334.3059382,-0.58,-1.99,-0.41,-159.69,98.38,-28.29,2.11
1773566334.4019876,0.29,-2.0,-0.91,-19.04,-98.61,-232.96,2.22
1773566334.5069442,0.15,-1.21,-0.72,-206.73,171.04,4.96,1.41
1773566334.6068332,0.17,-0.45,-0.18,-63.3,25.01,-14.35,0.51
1773566334.709569,0.12,-0.31,-0.34,1.25,-43.41,-10.46,0.48
1773566334.8070264,0.4,-0.98,-1.02,52.38,-86.18,67.68,1.47
1773566334.9165342,0.43,-0.89,-0.98,-59.51,44.3,-21.89,1.39
0.0,0.0,0.0,0.0,0.0,0.0,0.0,0.0
1773566337.4360502,0.0,-0.81,-0.16,103.56,-34.4,18.66,0.82
1773566337.4360502,0.09,-0.7,-0.09,103.4,-41.76,36.85,0.71
1773566337.523066,0.13,-1.0,-0.07,44.64,-10.69,56.55,1.01
1773566337.619064,-0.13,-0.89,0.15,-8.38,-30.76,-53.45,0.91
1773566337.7190914,-0.02,-1.06,0.06,15.63,-2.21,34.79,1.06
1773566337.823192,-0.01,-0.92,0.06,15.68,-7.37,-13.92,0.93
1773566337.9235086,-0.02,-0.99,0.08,4.26,0.17,0.81,0.99
1773566338.0234234,-0.02,-0.97,0.06,2.41,-9.27,-3.83,0.97
1773566338.134602,-0.02,-0.98,0.08,-2.95,-5.04,-3.8,0.98
1773566338.2408442,-0.04,-0.95,0.1,-7.16,-5.95,-5.54,0.96
1773566338.3408494,-0.03,-0.96,0.1,-7.71,-8.82,-4.28,0.97
1773566338.4424028,-0.03,-0.97,0.09,-1.86,-9.31,0.49,0.98
1773566338.5411198,-0.03,-0.98,0.09,-8.09,-10.49,-3.97,0.98
1773566338.6554358,-0.04,-0.98,0.1,-6.69,-9.6,-3.59,0.99
1773566338.7562623,-0.05,-1.0,0.14,-2.27,-10.7,-2.35,1.01
1773566338.8572707,-0.02,-0.94,0.11,-7.94,-11.89,-3.16,0.95
1773566338.9589906,-0.03,-0.98,0.13,-7.4,-10.75,-8.86,0.99
1773566339.060006,-0.06,-0.96,0.12,-2.11,-10.73,-3.99,0.97
1773566339.1731808,-0.1,-0.99,0.11,-12.52,-37.62,3.08,1.0
1773566339.276085,-0.16,-0.97,0.04,-15.28,-95.91,17.24,0.99
1773566339.3731906,-0.28,-0.98,0.1,-15.83,-159.54,-7.51,1.02
1773566339.475969,-0.13,-1.1,0.07,13.24,-222.0,70.92,1.11
1773566339.578017,0.33,-0.74,0.02,-19.66,-223.53,37.37,0.81
1773566339.6933398,0.03,-1.04,0.14,-40.17,-221.86,-34.08,1.05
1773566339.8095944,0.15,-0.83,0.1,-8.31,-206.11,44.01,0.85
1773566339.8911855,0.2,-0.96,0.11,-36.31,-216.86,17.02,0.99
1773566339.9928794,0.25,-0.91,0.09,-31.51,-221.31,10.09,0.95
1773566340.0953083,0.19,-0.97,-0.09,-32.96,-221.91,2.72,1.0
1773566340.2061083,-0.3,-1.46,-0.27,-70.95,-163.73,41.21,1.52
1773566340.3233874,-0.09,-0.89,-0.19,-10.66,-161.59,-9.63,0.91
1773566340.4096005,-0.01,-0.63,-0.27,-72.69,-136.44,16.99,0.68
1773566340.510194,0.17,-0.93,-0.37,-60.86,-143.83,-31.5,1.02
1773566340.6106424,0.08,-0.58,-0.17,-67.83,-162.44,-162.15,0.61
1773566340.7232008,0.26,-0.64,-0.4,-4.63,-48.78,54.26,0.8
1773566340.8247018,0.09,-1.4,-0.29,-30.98,-42.93,-68.6,1.43
0.0,0.0,0.0,0.0,0.0,0.0,0.0,0.0
1773566342.4776435,0.18,-1.27,-0.44,-35.73,-19.02,-17.31,1.35
1773566342.5747962,0.15,-1.24,-0.47,37.39,-13.71,5.86,1.34
1773566342.6752574,0.16,-1.0,-0.37,16.35,-0.05,7.97,1.08
1773566342.772851,0.03,-0.96,-0.22,63.91,24.18,64.29,0.98
1773566342.883189,0.01,-0.86,-0.09,108.15,-3.92,58.96,0.86
1773566342.9891346,-0.05,-0.73,-0.02,89.62,3.65,44.3,0.73
1773566343.089321,0.07,-0.62,-0.06,74.18,9.6,24.72,0.63
1773566343.190514,-0.11,-1.09,-0.02,28.76,25.94,41.22,1.1
1773566343.2908804,-0.16,-0.91,0.07,-3.33,-1.37,-5.82,0.92
1773566343.4064658,-0.1,-0.99,0.1,-7.27,-18.14,15.54,1.0
1773566343.508537,-0.13,-0.95,0.05,-26.14,-30.43,-11.68,0.96
1773566343.6091616,-0.12,-1.0,0.07,-21.15,-44.57,-1.53,1.01
1773566343.708765,-0.14,-0.98,0.05,-23.13,-45.36,-3.96,0.99
1773566343.8229425,-0.1,-0.95,0.05,-23.39,-44.84,-4.2,0.95
1773566343.9252155,-0.12,-1.0,0.03,-21.51,-33.28,-1.05,1.01
1773566344.025907,-0.11,-0.96,0.01,-11.91,-39.28,-3.39,0.97
1773566344.1269298,-0.12,-0.98,0.01,1.53,-47.37,8.06,0.98
1773566344.226358,-0.11,-0.99,0.02,-0.5,-43.22,5.53,0.99
1773566344.3267498,-0.09,-0.96,0.05,2.98,-33.83,4.52,0.96
1773566344.4269865,-0.11,-0.92,0.04,-14.66,-34.67,-1.44,0.93
1773566344.5286918,-0.11,-0.83,-0.02,-32.32,-23.24,-2.26,0.84
1773566344.639026,-0.09,-0.85,-0.08,-58.72,-18.17,-27.44,0.86
0.0,0.0,0.0,0.0,0.0,0.0,0.0,0.0
1773566347.3934395,-0.01,-0.97,-0.03,-58.5,7.21,-28.96,0.97
1773566347.509132,-0.03,-0.93,-0.09,-83.59,-2.89,-37.73,0.94
1773566347.6052885,-0.05,-1.0,-0.14,-102.46,-2.11,-56.73,1.01
1773566347.7085342,0.1,-1.18,-0.32,-80.6,0.64,-49.48,1.22
1773566347.80451,0.15,-1.21,-0.56,-50.43,22.87,-8.23,1.34
1773566347.9084394,0.21,-1.05,-0.59,-11.4,-21.3,35.31,1.23
1773566348.023339,0.12,-0.98,-0.43,17.37,4.55,46.99,1.08
1773566348.10771,0.08,-0.88,-0.41,49.69,-2.84,75.17,0.98
1773566348.207524,0.02,-0.83,-0.32,28.9,20.72,57.36,0.89
1773566348.321118,-0.11,-0.85,-0.16,-2.26,-23.02,-4.52,0.87
1773566348.4284708,0.14,-0.69,-0.26,117.91,-17.54,13.66,0.75
1773566348.5313094,-0.02,-0.99,-0.23,47.62,-11.71,36.98,1.02
1773566348.621881,-0.11,-0.91,-0.1,50.43,-20.95,-1.66,0.93
1773566348.7348566,-0.04,-0.97,-0.05,19.31,-17.77,-6.57,0.98
1773566348.8411422,-0.08,-1.01,-0.08,17.21,-18.73,2.55,1.02
1773566348.9418309,-0.06,-0.97,-0.04,3.25,-29.77,-11.74,0.97
1773566349.0418336,-0.08,-0.96,-0.01,-7.5,-28.64,-8.9,0.96
1773566349.1424649,-0.09,-0.99,0.02,-16.98,-26.98,-7.25,1.0
1773566349.2541776,-0.03,-0.99,-0.02,26.66,-32.9,-0.64,0.99
1773566349.357632,-0.05,-0.98,-0.0,14.66,-26.64,-2.7,0.98
1773566349.4580295,-0.05,-0.97,0.03,7.14,-30.46,-5.34,0.98
1773566349.5562348,-0.07,-0.98,0.03,1.95,-30.9,3.3,0.99
1773566349.6723275,-0.08,-0.97,0.03,0.95,-31.36,10.06,0.97
1773566349.7723446,-0.07,-0.98,0.03,-2.93,-35.74,17.43,0.98
1773566349.8744338,-0.06,-0.95,0.02,-6.87,-42.44,15.16,0.95
1773566349.975202,-0.06,-0.97,0.02,-11.24,-46.79,12.95,0.97
1773566350.0720584,-0.09,-0.95,0.01,-14.78,-44.76,16.04,0.95
1773566350.1743362,-0.1,-0.77,-0.04,-45.42,-54.57,1.36,0.77
1773566350.2917044,-0.1,-0.57,-0.08,-101.6,-41.59,-49.92,0.58
1773566350.3907382,0.12,-0.64,-0.28,-50.41,-3.85,19.94,0.71
1773566350.4901626,-0.02,-1.11,-0.44,-37.57,22.59,8.87,1.19
1773566350.5888052,-0.16,-2.0,-0.46,139.77,44.85,367.95,2.06
1773566350.7054937,-0.0,0.13,0.23,114.56,-125.63,-212.89,0.27
1773566350.8067296,-0.22,-1.13,0.03,97.65,-19.25,67.02,1.15
1773566350.9218793,-0.22,-1.0,0.06,79.53,-53.92,-6.12,1.03
1773566351.0061011,-0.12,-0.8,0.09,-20.9,4.84,-15.45,0.81
1773566351.1064315,-0.14,-0.95,0.11,-4.24,12.96,-24.5,0.97
1773566351.218827,-0.2,-1.0,0.09,11.77,-13.56,-8.38,1.02
1773566351.32082,-0.14,-0.96,0.06,-24.41,-24.93,-12.05,0.98
0.0,0.0,0.0,0.0,0.0,0.0,0.0,0.0
1773566353.8195362,-0.06,-1.0,0.02,13.44,49.69,3.27,1.0
1773566353.906101,-0.07,-0.96,0.05,12.63,23.34,3.39,0.96
1773566354.0099926,-0.11,-0.99,0.06,-0.29,-8.29,2.79,1.0
1773566354.1069572,-0.06,-0.94,0.06,-8.86,-27.19,0.38,0.95
1773566354.205053,-0.06,-0.96,0.06,-3.24,-37.48,-5.19,0.97
1773566354.308012,-0.08,-1.01,0.06,-4.56,-34.11,6.08,1.01
1773566354.417755,-0.06,-0.98,0.07,-14.69,-36.09,1.5,0.98
1773566354.5236945,-0.06,-0.97,0.06,-10.75,-36.21,-0.81,0.97
1773566354.6230268,-0.04,-0.95,0.06,-8.41,-46.15,3.31,0.95
1773566354.7396164,-0.11,-0.99,0.14,-4.11,-85.54,-0.46,1.0
1773566354.8346677,-0.0,-0.95,0.12,-27.92,-101.34,10.87,0.95
1773566354.937833,0.0,-1.02,0.06,-37.53,-79.54,5.25,1.02
1773566355.039735,0.09,-0.91,-0.15,-100.35,-37.89,-13.62,0.92
1773566355.1385455,-0.17,-1.1,-0.04,-42.14,-2.38,-31.7,1.11
1773566355.247647,-0.12,-0.89,-0.13,-1.98,36.17,11.31,0.91
1773566355.3410397,-0.07,-1.13,-0.14,-17.19,-7.94,9.43,1.14
1773566355.4431655,0.01,-0.95,-0.09,9.18,-44.55,-12.14,0.95
1773566355.5569825,-0.03,-0.99,-0.1,8.32,-45.73,8.41,0.99
1773566355.655342,-0.0,-0.93,-0.06,-14.14,-63.16,-8.38,0.94
1773566355.754875,0.02,-0.91,-0.1,-18.18,-59.54,4.34,0.92
1773566355.8557556,0.0,-0.77,-0.11,-56.52,-54.87,-18.57,0.78
1773566355.9710498,-0.0,-0.69,-0.21,-64.24,-34.23,-34.54,0.72
1773566356.075909,0.16,-0.45,-0.29,-57.94,-42.63,-99.68,0.56
1773566356.1810162,0.11,-1.31,-0.49,40.4,53.57,99.63,1.4
1773566356.2905302,0.64,-2.0,-0.02,114.09,84.75,133.51,2.1
1773566356.3772793,-0.37,-0.37,0.13,-109.18,-82.76,-349.7,0.53
1773566356.477889,-0.28,-1.15,0.12,55.66,32.32,142.08,1.19
1773566356.5879447,-0.07,-0.98,-0.02,61.88,-0.66,44.81,0.98
1773566356.686247,0.07,-0.8,-0.01,-17.13,17.31,-6.67,0.8
1773566356.803579,-0.02,-1.05,-0.01,-0.69,4.96,-0.02,1.05
0.0,0.0,0.0,0.0,0.0,0.0,0.0,0.0
1773566358.9598043,0.03,-0.81,-0.18,103.5,26.78,14.24,0.83
1773566359.0620575,0.12,-0.91,-0.07,90.9,58.5,-11.96,0.92
1773566359.1706812,0.09,-0.8,0.01,32.26,72.09,12.87,0.81
1773566359.275433,0.1,-0.91,0.04,9.44,50.56,8.93,0.91
1773566359.3732915,0.13,-0.99,0.03,3.66,99.76,-6.92,0.99
1773566359.4763544,-0.03,-0.96,0.12,33.18,96.26,22.95,0.96
1773566359.5900865,-0.03,-0.97,0.08,-3.11,56.43,46.88,0.97
1773566359.6903229,-0.06,-0.95,0.05,-6.46,2.09,4.52,0.96
1773566359.7930603,-0.08,-0.98,0.05,-26.26,-39.16,-1.8,0.99
1773566359.904847,-0.04,-0.94,0.04,-30.73,-76.21,-17.27,0.94
1773566360.006642,0.01,-0.97,-0.02,-42.87,-95.28,-14.67,0.97
1773566360.1042106,0.06,-0.98,-0.06,-38.7,-86.41,-14.2,0.98
1773566360.1945782,0.02,-0.95,0.02,-21.24,-87.22,-11.54,0.95
1773566360.305814,0.03,-0.87,-0.1,-19.19,-64.79,20.49,0.88
1773566360.4067316,-0.05,-0.65,-0.15,-49.73,-53.42,5.72,0.67
1773566360.5196435,0.08,-0.47,-0.2,-83.02,-46.31,-64.79,0.52
1773566360.6225536,0.04,-1.08,-0.36,-75.8,36.12,33.08,1.14
1773566360.7193837,-0.38,-1.47,0.03,27.08,13.91,2.17,1.52
1773566360.8192017,-0.26,-1.46,-0.47,-111.86,66.34,-150.44,1.55
1773566360.9177444,0.1,-0.71,-0.27,98.11,-64.86,114.03,0.76
1773566361.0340889,-0.26,-1.17,-0.08,68.12,-63.19,20.34,1.2
1773566361.140254,-0.15,-0.85,-0.0,8.03,-19.01,-15.34,0.87
1773566361.227041,-0.17,-0.97,-0.03,3.95,19.65,17.77,0.98
1773566361.3371823,-0.15,-1.0,-0.06,-9.27,-8.28,-15.92,1.01
0.0,0.0,0.0,0.0,0.0,0.0,0.0,0.0
1773566363.4455457,0.03,-0.86,-0.4,153.48,-45.31,31.94,0.95
1773566363.4613955,0.02,-0.66,-0.23,147.31,-24.78,25.24,0.7
1773566363.653547,0.03,-0.87,-0.13,85.14,-3.19,76.98,0.88
1773566363.6702137,-0.06,-0.9,-0.07,49.39,27.47,-1.13,0.91
1773566363.8535233,-0.05,-1.02,-0.03,25.44,17.45,-2.02,1.02
1773566363.8702002,-0.15,-0.91,0.05,14.64,34.3,-16.86,0.93
1773566364.071041,-0.08,-0.97,0.0,-22.81,33.85,-18.08,0.97
1773566364.080755,-0.05,-0.98,-0.01,-8.2,58.9,3.05,0.98
1773566364.1867845,-0.09,-0.98,-0.02,-11.34,14.99,-8.15,0.99
1773566364.2882588,-0.12,-0.99,-0.06,-5.85,3.42,-7.62,1.0
1773566364.4034762,-0.11,-0.97,-0.03,4.66,-21.62,-0.14,0.97
1773566364.4878745,-0.06,-1.0,-0.02,-1.71,-40.47,-12.66,1.0
1773566364.5931268,-0.09,-1.0,0.01,9.82,-35.37,-3.08,1.0
1773566364.689458,-0.08,-0.96,0.0,1.76,-40.95,4.34,0.96
1773566364.7896273,-0.08,-0.98,0.0,5.27,-34.14,3.83,0.98
1773566364.9045677,-0.09,-0.97,0.02,-8.56,-32.2,4.44,0.98
1773566365.011841,-0.07,-0.96,-0.0,-14.12,-25.7,0.2,0.96
1773566365.116154,-0.08,-0.97,-0.05,-12.61,-24.09,2.2,0.98
1773566365.2228458,-0.06,-0.94,-0.04,-23.86,-30.24,2.0,0.94
1773566365.3204408,-0.02,-0.87,-0.07,-32.92,-41.48,-8.57,0.88
1773566365.422945,-0.02,-0.67,-0.12,-51.39,-22.92,-30.9,0.68
1773566365.5224156,0.05,-0.55,-0.15,-67.85,-28.89,-80.92,0.57
1773566365.6223438,0.04,-1.04,-0.2,53.19,-31.57,45.21,1.06
1773566365.7353275,0.17,-0.91,-0.22,71.1,71.33,-13.6,0.95
1773566365.8252945,-0.71,-2.0,-0.46,-153.71,3.14,10.82,2.17
1773566365.938301,-0.05,-0.56,0.12,179.86,-88.99,-52.55,0.57
1773566366.0357358,-0.54,-0.98,0.2,58.56,-17.57,78.14,1.14
1773566366.1368072,-0.14,-0.94,0.09,49.91,-16.21,2.55,0.95
1773566366.2502966,-0.22,-0.82,0.11,-0.96,19.91,-27.85,0.86
1773566366.3454494,-0.27,-1.0,0.18,7.27,-21.13,-34.28,1.06
1773566366.4431243,-0.19,-0.95,0.1,-2.21,-37.65,8.3,0.97
1773566366.553835,-0.15,-0.95,0.16,-21.34,-9.88,-15.51,0.97
1773566366.6542878,-0.18,-0.95,0.09,-14.55,-21.57,-20.12,0.97
0.0,0.0,0.0,0.0,0.0,0.0,0.0,0.0
1773566369.1901972,-0.02,-0.97,0.07,9.18,4.85,-7.62,0.98
1773566369.2092574,-0.08,-1.02,0.06,3.77,15.79,-15.73,1.02
1773566369.3040216,-0.11,-0.99,0.1,-11.48,33.72,-2.21,1.0
1773566369.398143,-0.01,-0.97,0.05,52.2,47.08,30.85,0.98
1773566369.503945,-0.06,-0.91,0.05,-36.17,101.69,31.94,0.91
1773566369.6029525,-0.14,-0.96,0.14,-24.73,28.43,-42.17,0.98
1773566369.7073703,-0.12,-0.96,0.01,-16.89,49.11,5.4,0.97
1773566369.8199668,-0.23,-1.0,-0.04,-3.6,4.34,-1.16,1.02
1773566369.919567,-0.12,-0.96,-0.03,-18.78,-34.21,-15.34,0.97
1773566370.0261643,-0.12,-0.99,-0.04,-12.17,-39.63,-11.01,1.0
1773566370.119567,-0.11,-0.96,-0.04,-23.6,-47.59,-12.26,0.96
1773566370.223956,-0.1,-0.99,-0.01,-13.08,-49.04,-17.76,0.99
1773566370.3207326,-0.07,-1.0,-0.05,-7.19,-63.05,-10.63,1.01
1773566370.4390674,-0.07,-0.97,-0.04,-17.28,-62.05,11.54,0.97
1773566370.5383997,-0.1,-0.95,-0.06,-31.4,-57.28,5.94,0.96
1773566370.6444888,-0.0,-0.83,-0.15,-54.73,-49.8,-6.75,0.84
1773566370.7528522,0.04,-0.76,-0.22,-72.86,-45.27,-37.65,0.79
1773566370.8465674,0.02,-0.74,-0.19,-46.24,-3.54,-24.78,0.77
1773566370.956213,0.01,-0.83,-0.33,-46.55,10.38,6.09,0.9
1773566371.054686,0.22,-0.74,-0.45,-65.71,55.69,-31.16,0.89
1773566371.1527874,0.21,-2.0,0.01,141.4,7.71,103.25,2.01
1773566371.25432,-0.26,-0.57,0.05,116.41,-89.1,-208.46,0.63
1773566371.355656,-0.32,-0.82,0.23,67.94,-37.42,173.51,0.91
1773566371.473051,-0.24,-1.23,0.12,82.96,-67.56,64.73,1.26
1773566371.585184,-0.15,-0.8,0.08,20.99,-20.02,7.74,0.82
0.0,0.0,0.0,0.0,0.0,0.0,0.0,0.0
1773566512.6854448,0.18,0.01,0.94,-34.82,-46.9,-52.29,0.96
1773566512.7920444,0.43,0.27,1.04,9.13,-26.38,-68.99,1.15
1773566512.8887267,0.49,0.3,0.73,-53.53,10.05,-85.15,0.93
1773566513.005436,0.29,0.2,0.77,-21.31,34.87,-29.25,0.85
1773566513.1077833,0.28,0.02,0.79,-27.33,-11.19,-98.03,0.84
1773566513.206049,0.3,-0.05,0.82,-12.37,-26.55,-23.82,0.88
1773566513.3092682,0.21,-0.09,0.84,-19.1,-17.41,27.62,0.87
1773566513.4074495,0.36,0.01,1.16,67.02,36.63,-58.93,1.21
1773566513.52141,0.1,0.6,1.1,-69.24,16.88,16.47,1.25
1773566513.6230488,0.14,0.23,0.74,27.45,-25.62,9.56,0.78
1773566513.724694,0.05,0.04,0.65,6.43,-1.68,-8.14,0.66
1773566513.8220084,0.01,0.19,0.9,-1.25,-53.39,-17.85,0.92
1773566513.9219966,0.09,-0.09,1.08,-28.15,-23.89,-37.94,1.09
1773566514.0226755,0.32,0.44,1.29,41.91,-7.47,23.19,1.4
1773566514.1247082,0.39,0.11,0.82,-57.56,-78.47,-0.43,0.92
1773566514.2393658,0.16,0.07,0.56,45.59,33.71,96.78,0.59
1773566514.340273,0.17,0.09,0.65,-59.71,1.33,-8.72,0.68
1773566514.4410555,0.39,-0.19,0.99,67.3,-2.09,-20.18,1.08
1773566514.554941,0.22,0.01,1.32,18.87,16.92,57.85,1.34
1773566514.6424804,0.18,1.03,1.19,-144.2,12.84,-61.02,1.59
1773566514.7559578,0.42,0.01,0.64,50.31,-0.23,-1.12,0.77
1773566514.856306,0.09,0.22,0.53,-54.32,-41.01,114.41,0.58
1773566514.9743516,0.08,-0.17,0.79,-32.66,-23.47,40.63,0.81
1773566515.073505,0.25,-0.16,1.35,57.91,-65.42,91.54,1.38
1773566515.158419,0.24,0.47,1.08,-146.02,-29.01,63.37,1.2
1773566515.2734993,0.53,-0.15,0.88,-79.69,-138.66,87.86,1.04
1773566515.3716662,0.42,-0.27,0.03,-78.38,-510.57,498.34,0.5
1773566515.4884007,0.84,-0.36,0.13,-42.89,-24.73,124.92,0.93
1773566515.5923302,0.47,-1.21,0.3,39.3,-213.22,316.27,1.33
1773566515.6928885,2.0,-0.88,-0.99,-27.42,-120.57,10.26,2.4
1773566515.79291,0.43,-0.61,0.09,69.33,10.7,-40.38,0.75
1773566515.8935244,0.45,-0.37,0.13,-39.79,63.92,79.89,0.6
1773566516.0070176,0.57,-0.86,0.18,-2.31,-2.99,86.9,1.05
1773566516.094063,0.5,-1.04,0.52,34.29,-7.3,38.95,1.27
1773566516.2053032,1.03,-0.73,0.12,-15.18,3.62,12.58,1.27
1773566516.3066115,0.43,-0.8,0.35,90.4,-25.59,-55.74,0.98
0.0,0.0,0.0,0.0,0.0,0.0,0.0,0.0
1773566521.7541864,-0.06,-0.82,0.08,-21.94,-17.47,25.54,0.83
1773566521.8276448,-0.04,-1.14,0.14,-29.98,-41.28,-4.84,1.15
1773566521.9221418,0.06,-0.83,0.19,-22.24,-27.34,-33.21,0.85
1773566522.0240088,-0.01,-0.96,0.23,-56.14,-14.05,-42.05,0.98
1773566522.1213582,-0.05,-1.24,0.3,-22.32,-1.33,-154.78,1.28
1773566522.2388687,0.09,-1.17,-0.21,-62.2,15.57,49.5,1.2
1773566522.3314216,0.15,-0.89,-0.04,67.69,17.66,-84.25,0.9
1773566522.4391894,0.17,-0.5,0.01,25.36,24.44,49.83,0.53
1773566522.545178,0.16,-0.99,0.24,13.22,-31.18,10.44,1.04
1773566522.6540928,0.16,-1.1,0.34,19.62,-16.73,50.73,1.16
1773566522.755861,0.27,-1.01,0.18,53.16,-39.83,-10.72,1.06
1773566522.855145,0.04,-1.0,-0.22,-52.55,-16.92,74.37,1.02
1773566522.958346,0.21,-0.74,0.07,-22.4,-72.5,-110.79,0.77
1773566523.0689414,0.09,-0.63,0.01,-27.66,-14.37,31.97,0.64
1773566523.1568046,0.06,-1.07,0.13,-36.09,-21.08,-60.96,1.08
1773566523.2624843,0.05,-1.46,0.31,27.01,0.12,-51.41,1.49
1773566523.3734388,0.6,-1.18,-0.3,-26.11,16.66,45.02,1.36
1773566523.4745927,0.25,-0.96,-0.03,-26.32,11.76,-43.18,0.99
1773566523.5704577,0.22,-0.47,0.01,6.02,33.62,17.85,0.51
1773566523.6876085,0.18,-0.82,0.2,-15.57,-16.64,40.47,0.87
1773566523.7773492,0.18,-1.18,0.31,38.67,0.81,63.24,1.23
1773566523.8884194,0.35,-1.34,-0.08,64.69,-2.14,88.96,1.39
1773566523.9876883,0.1,-0.77,-0.02,-39.19,-49.22,-21.86,0.78
1773566524.0887036,0.15,-0.84,0.1,17.76,-93.66,-77.07,0.86
1773566524.189769,0.08,-0.62,0.08,-29.42,-47.65,-3.79,0.63
0.0,0.0,0.0,0.0,0.0,0.0,0.0,0.0
1773566530.1596613,0.03,-0.98,0.21,22.26,-41.48,-1.94,1.0
1773566530.2386513,0.05,-0.96,0.21,5.73,-38.34,12.78,0.98
1773566530.345699,0.08,-0.89,0.23,-14.6,-33.19,0.12,0.92
1773566530.439477,0.06,-0.94,0.24,-16.72,-34.15,0.3,0.97
1773566530.5537229,0.06,-0.93,0.27,-14.02,-56.63,-4.73,0.97
1773566530.6532595,-0.04,-0.91,0.23,-11.92,-94.02,20.17,0.94
1773566530.7540994,0.01,-0.9,0.26,-6.86,-125.94,52.08,0.93
1773566530.8624449,-0.01,-1.02,0.34,-4.31,-133.86,49.92,1.08
1773566530.969617,0.07,-1.25,0.21,21.79,-96.53,86.11,1.27
1773566531.0635328,0.01,-0.82,-0.01,-3.44,-96.67,29.63,0.82
1773566531.1723914,-0.15,-1.0,0.07,-61.42,-118.38,-28.15,1.01
1773566531.2696033,0.06,-0.76,0.15,-11.45,-76.23,-19.15,0.77
1773566531.3768177,-0.11,-0.93,0.17,-5.91,-45.13,8.23,0.95
1773566531.474191,-0.07,-0.9,0.19,-5.42,-32.75,-3.71,0.92
1773566531.586828,-0.11,-1.13,0.35,17.04,-45.28,-64.32,1.19
1773566531.69099,0.2,-0.95,-0.08,13.89,13.19,17.63,0.97
1773566531.7937093,0.13,-0.99,0.09,-20.58,-21.25,-12.79,1.0
1773566531.8942528,0.03,-0.75,0.13,-24.64,-7.74,-1.48,0.76
1773566531.9876268,0.05,-0.89,0.2,-18.6,-25.45,32.47,0.91
1773566532.1042552,0.04,-0.94,0.24,2.32,-12.23,45.48,0.97
1773566532.2056918,0.01,-1.32,0.32,48.9,-48.18,24.29,1.36
1773566532.3061929,-0.0,-0.93,-0.11,24.15,-33.88,34.79,0.94
1773566532.4204853,-0.17,-0.92,0.02,-48.03,-79.79,-16.35,0.94
1773566532.5053394,0.0,-0.69,0.09,-8.47,-63.59,-11.02,0.7
1773566532.62212,-0.18,-0.97,0.2,-14.66,-53.27,-14.21,1.0
1773566532.7215478,-0.07,-1.0,0.23,49.8,-45.94,-17.08,1.03
1773566532.8222382,0.09,-1.32,0.18,37.74,-17.1,35.94,1.33
1773566532.9358582,0.27,-0.74,0.02,-36.86,-13.7,11.51,0.79
1773566533.036864,0.08,-0.94,0.17,-36.79,-21.86,-23.42,0.95
1773566533.1372614,0.07,-0.74,0.19,-22.34,-33.53,6.18,0.77
1773566533.2365696,0.14,-0.89,0.28,-15.88,-23.73,10.82,0.94
1773566533.340454,0.06,-1.02,0.29,1.63,8.98,42.56,1.07
0.0,0.0,0.0,0.0,0.0,0.0,0.0,0.0
1773566534.666278,0.06,-0.85,0.23,-30.0,-3.57,-20.6,0.89
1773566534.687933,0.06,-0.93,0.29,-54.44,30.29,10.95,0.97
1773566534.7885787,-0.03,-1.15,0.35,-30.17,38.5,-2.29,1.21
1773566534.9025834,0.2,-1.39,-0.15,9.42,91.62,59.85,1.41
1773566534.988544,-0.09,-0.75,-0.07,-27.36,30.3,-64.02,0.75
1773566535.0858698,-0.07,-0.88,0.06,-21.04,-40.67,-51.76,0.88
1773566535.202427,-0.06,-0.77,0.04,-19.05,-14.75,-8.06,0.77
1773566535.3026092,-0.09,-0.98,0.15,3.24,-33.36,-22.89,0.99
1773566535.403941,-0.12,-1.24,0.32,25.62,-43.22,-31.63,1.29
1773566535.5194097,0.3,-1.3,-0.05,-8.66,-39.08,-19.94,1.34
1773566535.6033485,0.25,-0.93,-0.1,21.51,-8.14,29.65,0.97
1773566535.7034664,0.09,-0.72,0.11,-31.01,3.04,-27.77,0.73
1773566535.8386264,0.16,-0.72,0.13,-23.6,5.95,14.88,0.75
1773566535.952693,0.0,-1.08,0.26,-15.74,-7.02,1.4,1.11
1773566536.0355985,0.02,-1.25,0.26,5.25,19.92,66.5,1.28
1773566536.1394682,0.15,-1.33,-0.25,29.79,0.92,47.21,1.37
1773566536.2391272,-0.08,-0.95,-0.11,-32.86,-23.05,-31.83,0.96
1773566536.3377244,0.05,-0.66,0.12,22.84,-58.46,-63.19,0.67
1773566536.4391675,-0.08,-0.82,0.08,-6.95,-2.41,9.01,0.83
1773566536.5362835,-0.13,-0.97,0.24,21.95,-38.84,-43.08,1.01
1773566536.6602674,-0.03,-1.24,0.29,38.11,-30.47,-5.88,1.27
1773566536.7385328,0.41,-1.43,-0.26,34.76,13.07,43.17,1.51
1773566536.8373764,0.11,-0.87,0.08,-43.88,24.09,11.37,0.88
1773566536.941233,0.08,-0.7,0.1,-29.34,25.11,-27.31,0.71
1773566537.044245,0.05,-0.85,0.16,-11.07,-9.16,26.69,0.87
1773566537.170727,0.03,-0.94,0.27,10.27,-23.89,19.66,0.98
1773566537.271663,-0.05,-1.2,0.39,49.14,-59.24,8.3,1.26
0.0,0.0,0.0,0.0,0.0,0.0,0.0,0.0
1773566538.4022207,0.04,-0.94,0.17,-21.69,-26.12,24.29,0.96
1773566538.5195963,-0.01,-0.83,0.26,-27.68,-14.21,0.49,0.87
1773566538.604817,-0.06,-1.12,0.3,-2.34,-6.9,42.92,1.16
1773566538.758799,-0.04,-1.42,0.0,34.2,-8.03,66.26,1.42
1773566538.852198,-0.11,-0.79,-0.1,-31.94,3.86,-29.59,0.8
1773566538.9251263,-0.08,-0.92,0.15,-0.6,-36.81,-50.25,0.94
1773566539.058859,-0.09,-0.7,0.08,-3.92,17.69,0.85,0.71
1773566539.1325772,-0.21,-0.86,0.22,2.78,-27.86,-38.43,0.91
1773566539.2583947,-0.06,-1.22,0.27,26.41,-44.76,1.39,1.25
1773566539.3385973,0.38,-1.45,0.09,55.3,-42.98,-15.44,1.5
1773566539.4732232,0.12,-0.63,0.02,-62.7,32.56,-35.42,0.64
1773566539.54512,0.04,-0.82,0.09,-27.56,38.17,-30.02,0.83
1773566539.6369903,0.08,-0.71,0.12,-7.85,15.07,36.2,0.72
1773566539.7525957,0.02,-0.93,0.29,-9.69,-9.8,-1.12,0.98
1773566539.8547504,-0.2,-1.37,0.36,15.31,-2.37,31.75,1.43
1773566539.9854858,0.05,-1.19,-0.22,51.1,14.93,98.96,1.21
1773566540.0854442,-0.12,-0.98,-0.0,-57.16,-23.79,-43.91,0.99
1773566540.1616952,0.01,-0.65,0.11,-6.95,-25.62,-66.34,0.65
1773566540.2853994,-0.14,-0.87,0.11,-21.82,11.14,-8.38,0.88
1773566540.3685703,-0.11,-0.93,0.26,10.69,-10.35,-38.96,0.97
1773566540.4868667,0.01,-1.14,0.33,79.14,4.06,-69.83,1.18
1773566540.5789003,0.24,-1.06,-0.1,31.74,23.57,-27.36,1.09
1773566540.7028196,0.15,-0.87,0.15,-19.34,-3.12,-51.79,0.9
1773566540.7820678,0.05,-0.71,0.16,-30.37,1.28,20.08,0.73
1773566540.9048033,0.07,-0.92,0.23,-30.56,-46.64,18.24,0.95
1773566540.9879954,0.08,-0.95,0.28,-5.5,-26.24,53.72,1.0
1773566541.093559,0.1,-1.13,0.36,62.08,-49.02,-9.54,1.19
1773566541.1862464,-0.05,-0.92,-0.18,-19.04,18.09,37.45,0.93
1773566541.295732,0.01,-1.09,0.03,-53.94,-40.86,-54.14,1.09
0.0,0.0,0.0,0.0,0.0,0.0,0.0,0.0
1773566543.0514588,-0.14,-0.94,0.13,23.39,-67.34,7.75,0.96
1773566543.1556163,-0.1,-0.92,0.19,-12.96,-91.51,-22.54,0.95
1773566543.254531,-0.18,-0.9,0.22,-33.6,-112.5,-19.15,0.94
1773566543.360109,-0.01,-1.05,0.19,23.6,-107.74,-22.66,1.07
1773566543.4710145,0.31,-1.19,-0.08,-0.7,-57.05,-29.6,1.23
1773566543.5693774,0.18,-0.99,0.04,-17.4,18.15,-41.05,1.01
1773566543.6708646,0.13,-0.65,0.09,-21.54,40.34,-5.68,0.67
1773566543.781098,0.23,-0.81,0.16,-66.0,2.2,14.46,0.85
1773566543.8756192,0.08,-1.02,0.2,-31.44,16.34,-13.45,1.04
1773566543.9855747,0.25,-1.32,0.14,17.69,2.63,26.29,1.35
1773566544.0851436,0.08,-1.0,-0.2,7.6,5.02,3.25,1.03
1773566544.2011445,0.02,-0.9,0.01,-12.24,-61.08,-38.32,0.9
1773566544.3047843,0.11,-0.56,0.02,29.31,-2.58,6.69,0.57
1773566544.4032795,-0.09,-0.85,0.11,-22.14,19.89,-1.36,0.86
1773566544.5029354,-0.01,-1.17,0.17,-28.58,1.1,-4.67,1.19
1773566544.6025972,0.42,-1.31,0.12,115.11,-12.73,-46.58,1.38
1773566544.7032378,0.32,-0.74,-0.1,-46.99,48.0,38.11,0.82
1773566544.8064055,-0.05,-0.96,0.07,19.3,-15.31,-37.13,0.97
1773566544.9226737,0.07,-0.56,0.04,-38.52,2.43,43.4,0.57
1773566545.023419,0.08,-1.01,0.22,-32.55,-46.52,-40.89,1.04
1773566545.1241498,-0.09,-1.26,0.33,-18.69,-83.28,-1.15,1.31
1773566545.2244911,0.16,-1.38,-0.39,17.36,-19.92,120.37,1.44
1773566545.3350606,0.02,-1.04,-0.04,-27.56,-81.19,-58.44,1.04
1773566545.435638,0.1,-0.59,0.05,4.47,-34.5,-21.94,0.61
1773566545.534393,-0.04,-0.82,0.01,-57.25,7.18,14.88,0.82
1773566545.6350317,-0.02,-1.01,0.13,-23.44,0.21,-23.76,1.02
1773566545.7357688,-0.01,-1.22,0.25,68.81,-10.92,-85.94,1.24
1773566545.856312,0.32,-1.27,-0.35,-33.74,70.4,107.02,1.35
1773566546.7400217,0.45,-1.15,-0.13,-72.17,14.63,4.43,1.24
1773566546.8355987,0.23,-1.49,-0.44,-3.48,27.54,-32.15,1.57
1773566546.9393065,0.09,-0.87,-0.1,20.85,-20.18,-60.32,0.88
1773566547.0589738,0.01,-0.64,-0.14,64.2,-6.28,19.25,0.65
1773566547.155071,0.05,-0.76,-0.02,4.85,-3.37,12.93,0.76
1773566547.2580233,-0.06,-0.88,0.07,-11.27,-6.34,-5.86,0.88
1773566547.3685043,0.03,-1.36,0.26,-40.75,-47.7,-83.97,1.38
1773566547.4549968,0.42,-1.03,-0.31,-71.21,0.99,-27.79,1.16
1773566547.5595171,0.18,-1.18,-0.14,-0.63,52.9,1.57,1.2
1773566547.668662,0.1,-0.57,-0.05,9.53,31.04,23.97,0.58
1773566547.7696517,0.07,-0.67,-0.0,-11.74,-38.53,-11.6,0.67
1773566547.86874,0.15,-1.03,0.13,-2.56,-34.05,37.01,1.05
1773566547.9717631,0.34,-1.28,-0.16,32.84,-37.21,42.93,1.34
1773566548.0859556,0.27,-1.27,-0.25,-30.31,-10.89,-15.65,1.32
1773566548.1732693,0.06,-0.85,-0.11,10.9,-49.28,-61.19,0.86
1773566548.2878003,0.05,-0.53,-0.12,10.95,-21.45,14.18,0.54
1773566548.3896854,0.01,-0.64,0.08,-17.79,-14.86,-28.0,0.65
1773566548.4859128,0.07,-1.23,0.11,7.39,17.54,14.67,1.24
1773566548.6041584,0.56,-1.58,-0.48,58.44,26.52,59.91,1.75
1773566548.6992612,0.19,-1.25,-0.15,36.75,56.99,-75.51,1.27
1773566548.8080816,0.0,-0.65,-0.02,-2.6,1.8,67.45,0.65
1773566548.9022985,0.04,-0.6,-0.02,6.47,-116.15,21.21,0.6
1773566549.0171766,0.04,-0.81,0.16,-18.53,-123.13,16.67,0.82
1773566549.1183825,-0.01,-1.06,0.16,-53.3,-95.91,54.11,1.07
1773566549.2199943,0.44,-1.38,-0.49,-14.11,-44.89,188.87,1.53
1773566549.318611,0.14,-1.19,-0.11,-44.46,-66.41,-140.49,1.2
0.0,0.0,0.0,0.0,0.0,0.0,0.0,0.0
1773566550.324751,0.38,-1.36,-0.35,-80.18,-47.59,-28.55,1.46
1773566550.3473964,0.25,-1.08,-0.1,4.98,-9.25,34.78,1.11
1773566550.5384674,-0.08,-0.59,-0.16,9.11,-92.98,22.24,0.62
1773566550.553858,0.1,-0.66,-0.02,65.51,-119.95,62.47,0.67
1773566550.744468,0.02,-0.89,0.15,-15.74,-122.95,10.27,0.91
1773566550.7502077,0.09,-1.28,0.26,-27.54,-72.18,28.69,1.31
1773566550.9216013,-0.12,-1.67,-0.63,-28.2,65.53,91.94,1.79
1773566550.9545786,0.03,-0.65,-0.19,39.62,-24.75,-133.47,0.68
1773566551.1502328,-0.01,-0.72,-0.26,35.04,-30.18,11.17,0.76
1773566551.1705756,0.02,-0.76,0.0,2.02,-36.11,-33.1,0.76
1773566551.3516743,-0.04,-0.88,0.1,1.31,4.15,-5.59,0.89
1773566551.3756795,-0.02,-1.0,0.19,28.29,30.92,-99.1,1.01
1773566551.5548637,0.58,-1.71,-0.37,-16.14,88.72,8.26,1.85
1773566551.5839162,0.15,-1.29,-0.06,-4.09,-17.34,-35.92,1.3
1773566551.7669325,0.14,-0.6,-0.02,-4.46,12.55,67.31,0.61
1773566551.7860868,0.1,-0.6,0.03,-35.91,-60.46,4.35,0.61
1773566551.970362,0.08,-0.93,0.13,-52.89,-34.44,47.14,0.95
1773566551.990085,0.0,-1.27,0.19,-19.92,-38.87,31.01,1.28
1773566552.1651764,0.33,-1.22,-0.19,40.96,-22.17,89.98,1.28
